instructions,categoryA,categoryB,leftAttribute,rightAttribute,orStimulus,instructionIMG,trial_type,stimulusText,stimulusImage,blocks.thisRepN,blocks.thisTrialN,blocks.thisN,blocks.thisIndex,trials.thisRepN,trials.thisTrialN,trials.thisN,trials.thisIndex,instructionsIMG.started,leftCategoryLabel_2.started,rightCategoryLabel_2.started,leftAttributeLabel_2.started,rightAttributeLabel_2.started,orLeft_2.started,orRight_2.started,instructionsKey.started,leftCategoryLabel.started,rightCategoryLabel.started,leftAttributeLabel.started,rightAttributeLabel.started,orLeft.started,orRight.started,stimulusImageBox.started,stimulusTextBox.started,requiredResponse.started,feedbackResponse.started,feedback.started,requiredResponse.keys,requiredResponse.corr,requiredResponse.rt,feedbackResponse.keys,feedbackResponse.corr,feedbackResponse.rt,endBox.started,endBox.stopped,gender,age,participant,date,expName,psychopyVersion,frameRate,
"Part 1 of 7

Put a left finger on the 'E' key for items that belong to the category on the left.
Put a right finger on the 'I' key for items that belong to the category on the right.
Items will appear one at a time.

If you make a mistake, a red X will appear. Press the other key to continue.
GO AS FAST AS YOU CAN while being accurate.

Press 'E' or 'I' when you are ready to start.",Black People,White People, , , ,instr_1.jpg,2,text_trial_type_2,img_trial_type_2,0,0,0,0,0,0,0,1,26.229716500034556,26.229716500034556,26.229716500034556,26.229716500034556,26.229716500034556,26.229716500034556,26.229716500034556,28.196944100083783,55.17967740003951,55.17967740003951,55.17967740003951,55.17967740003951,55.17967740003951,55.17967740003951,55.447546399896964,55.447546399896964,55.447546399896964,55.447546399896964,55.447546399896964,i,1,2.0934319999068975,None,0,,,,Female,30,010,2022-10-28_10h22.26.515,IAT,2022.2.2,60.119457333486245,
"Part 1 of 7

Put a left finger on the 'E' key for items that belong to the category on the left.
Put a right finger on the 'I' key for items that belong to the category on the right.
Items will appear one at a time.

If you make a mistake, a red X will appear. Press the other key to continue.
GO AS FAST AS YOU CAN while being accurate.

Press 'E' or 'I' when you are ready to start.",Black People,White People, , , ,instr_1.jpg,2,text_trial_type_2,img_trial_type_2,0,0,0,0,0,1,1,1,,,,,,,,,57.563137700082734,57.563137700082734,57.563137700082734,57.563137700082734,57.563137700082734,57.563137700082734,57.86449810001068,57.86449810001068,57.86449810001068,57.86449810001068,57.86449810001068,i,1,1.358351499773562,None,0,,,,Female,30,010,2022-10-28_10h22.26.515,IAT,2022.2.2,60.119457333486245,
"Part 1 of 7

Put a left finger on the 'E' key for items that belong to the category on the left.
Put a right finger on the 'I' key for items that belong to the category on the right.
Items will appear one at a time.

If you make a mistake, a red X will appear. Press the other key to continue.
GO AS FAST AS YOU CAN while being accurate.

Press 'E' or 'I' when you are ready to start.",Black People,White People, , , ,instr_1.jpg,2,text_trial_type_2,img_trial_type_2,0,0,0,0,1,0,2,1,,,,,,,,,59.24716580007225,59.24716580007225,59.24716580007225,59.24716580007225,59.24716580007225,59.24716580007225,59.54774760012515,59.54774760012515,59.54774760012515,59.54774760012515,59.54774760012515,i,1,1.1010380999650806,None,0,,,,Female,30,010,2022-10-28_10h22.26.515,IAT,2022.2.2,60.119457333486245,
"Part 1 of 7

Put a left finger on the 'E' key for items that belong to the category on the left.
Put a right finger on the 'I' key for items that belong to the category on the right.
Items will appear one at a time.

If you make a mistake, a red X will appear. Press the other key to continue.
GO AS FAST AS YOU CAN while being accurate.

Press 'E' or 'I' when you are ready to start.",Black People,White People, , , ,instr_1.jpg,1,text_trial_type_1,img_trial_type_1,0,0,0,0,1,1,3,0,,,,,,,,,60.68386600003578,60.68386600003578,60.68386600003578,60.68386600003578,60.68386600003578,60.68386600003578,60.98116809991188,60.98116809991188,60.98116809991188,60.98116809991188,60.98116809991188,e,1,1.1941803998779505,None,0,,,,Female,30,010,2022-10-28_10h22.26.515,IAT,2022.2.2,60.119457333486245,
"Part 1 of 7

Put a left finger on the 'E' key for items that belong to the category on the left.
Put a right finger on the 'I' key for items that belong to the category on the right.
Items will appear one at a time.

If you make a mistake, a red X will appear. Press the other key to continue.
GO AS FAST AS YOU CAN while being accurate.

Press 'E' or 'I' when you are ready to start.",Black People,White People, , , ,instr_1.jpg,1,text_trial_type_1,img_trial_type_1,0,0,0,0,2,0,4,0,,,,,,,,,62.19744160003029,62.19744160003029,62.19744160003029,62.19744160003029,62.19744160003029,62.19744160003029,62.49713520007208,62.49713520007208,62.49713520007208,62.49713520007208,62.49713520007208,e,1,0.7851366999093443,None,0,,,,Female,30,010,2022-10-28_10h22.26.515,IAT,2022.2.2,60.119457333486245,
"Part 1 of 7

Put a left finger on the 'E' key for items that belong to the category on the left.
Put a right finger on the 'I' key for items that belong to the category on the right.
Items will appear one at a time.

If you make a mistake, a red X will appear. Press the other key to continue.
GO AS FAST AS YOU CAN while being accurate.

Press 'E' or 'I' when you are ready to start.",Black People,White People, , , ,instr_1.jpg,2,text_trial_type_2,img_trial_type_2,0,0,0,0,2,1,5,1,,,,,,,,,63.31313170003705,63.31313170003705,63.31313170003705,63.31313170003705,63.31313170003705,63.31313170003705,63.61492000008002,63.61492000008002,63.61492000008002,63.61492000008002,63.61492000008002,i,1,0.9718706998974085,None,0,,,,Female,30,010,2022-10-28_10h22.26.515,IAT,2022.2.2,60.119457333486245,
"Part 1 of 7

Put a left finger on the 'E' key for items that belong to the category on the left.
Put a right finger on the 'I' key for items that belong to the category on the right.
Items will appear one at a time.

If you make a mistake, a red X will appear. Press the other key to continue.
GO AS FAST AS YOU CAN while being accurate.

Press 'E' or 'I' when you are ready to start.",Black People,White People, , , ,instr_1.jpg,2,text_trial_type_2,img_trial_type_2,0,0,0,0,3,0,6,1,,,,,,,,,64.61297259991989,64.61297259991989,64.61297259991989,64.61297259991989,64.61297259991989,64.61297259991989,64.91504870005883,64.91504870005883,64.91504870005883,64.91504870005883,64.91504870005883,i,1,0.7921627000905573,None,0,,,,Female,30,010,2022-10-28_10h22.26.515,IAT,2022.2.2,60.119457333486245,
"Part 1 of 7

Put a left finger on the 'E' key for items that belong to the category on the left.
Put a right finger on the 'I' key for items that belong to the category on the right.
Items will appear one at a time.

If you make a mistake, a red X will appear. Press the other key to continue.
GO AS FAST AS YOU CAN while being accurate.

Press 'E' or 'I' when you are ready to start.",Black People,White People, , , ,instr_1.jpg,2,text_trial_type_2,img_trial_type_2,0,0,0,0,3,1,7,1,,,,,,,,,65.73246260010637,65.73246260010637,65.73246260010637,65.73246260010637,65.73246260010637,65.73246260010637,66.03148930007592,66.03148930007592,66.03148930007592,66.03148930007592,66.03148930007592,i,1,1.5767450998537242,None,0,,,,Female,30,010,2022-10-28_10h22.26.515,IAT,2022.2.2,60.119457333486245,
"Part 1 of 7

Put a left finger on the 'E' key for items that belong to the category on the left.
Put a right finger on the 'I' key for items that belong to the category on the right.
Items will appear one at a time.

If you make a mistake, a red X will appear. Press the other key to continue.
GO AS FAST AS YOU CAN while being accurate.

Press 'E' or 'I' when you are ready to start.",Black People,White People, , , ,instr_1.jpg,1,text_trial_type_1,img_trial_type_1,0,0,0,0,4,0,8,0,,,,,,,,,67.6303153000772,67.6303153000772,67.6303153000772,67.6303153000772,67.6303153000772,67.6303153000772,67.93154869996943,67.93154869996943,67.93154869996943,67.93154869996943,67.93154869996943,e,1,0.6541470000520349,None,0,,,,Female,30,010,2022-10-28_10h22.26.515,IAT,2022.2.2,60.119457333486245,
"Part 1 of 7

Put a left finger on the 'E' key for items that belong to the category on the left.
Put a right finger on the 'I' key for items that belong to the category on the right.
Items will appear one at a time.

If you make a mistake, a red X will appear. Press the other key to continue.
GO AS FAST AS YOU CAN while being accurate.

Press 'E' or 'I' when you are ready to start.",Black People,White People, , , ,instr_1.jpg,1,text_trial_type_1,img_trial_type_1,0,0,0,0,4,1,9,0,,,,,,,,,68.61367049999535,68.61367049999535,68.61367049999535,68.61367049999535,68.61367049999535,68.61367049999535,68.91472849994898,68.91472849994898,68.91472849994898,68.91472849994898,68.91472849994898,e,1,0.9622263999190181,None,0,,,,Female,30,010,2022-10-28_10h22.26.515,IAT,2022.2.2,60.119457333486245,
"Part 1 of 7

Put a left finger on the 'E' key for items that belong to the category on the left.
Put a right finger on the 'I' key for items that belong to the category on the right.
Items will appear one at a time.

If you make a mistake, a red X will appear. Press the other key to continue.
GO AS FAST AS YOU CAN while being accurate.

Press 'E' or 'I' when you are ready to start.",Black People,White People, , , ,instr_1.jpg,2,text_trial_type_2,img_trial_type_2,0,0,0,0,5,0,10,1,,,,,,,,,69.89740819996223,69.89740819996223,69.89740819996223,69.89740819996223,69.89740819996223,69.89740819996223,70.19802360003814,70.19802360003814,70.19802360003814,70.19802360003814,70.19802360003814,i,1,0.7690273998305202,None,0,,,,Female,30,010,2022-10-28_10h22.26.515,IAT,2022.2.2,60.119457333486245,
"Part 1 of 7

Put a left finger on the 'E' key for items that belong to the category on the left.
Put a right finger on the 'I' key for items that belong to the category on the right.
Items will appear one at a time.

If you make a mistake, a red X will appear. Press the other key to continue.
GO AS FAST AS YOU CAN while being accurate.

Press 'E' or 'I' when you are ready to start.",Black People,White People, , , ,instr_1.jpg,1,text_trial_type_1,img_trial_type_1,0,0,0,0,5,1,11,0,,,,,,,,,70.99673300003633,70.99673300003633,70.99673300003633,70.99673300003633,70.99673300003633,70.99673300003633,71.29969440004788,71.29969440004788,71.29969440004788,71.29969440004788,71.29969440004788,e,1,0.7713376998435706,None,0,,,,Female,30,010,2022-10-28_10h22.26.515,IAT,2022.2.2,60.119457333486245,
"Part 1 of 7

Put a left finger on the 'E' key for items that belong to the category on the left.
Put a right finger on the 'I' key for items that belong to the category on the right.
Items will appear one at a time.

If you make a mistake, a red X will appear. Press the other key to continue.
GO AS FAST AS YOU CAN while being accurate.

Press 'E' or 'I' when you are ready to start.",Black People,White People, , , ,instr_1.jpg,2,text_trial_type_2,img_trial_type_2,0,0,0,0,6,0,12,1,,,,,,,,,72.0967906001024,72.0967906001024,72.0967906001024,72.0967906001024,72.0967906001024,72.0967906001024,72.39835450006649,72.39835450006649,72.39835450006649,72.39835450006649,72.39835450006649,i,1,0.5817096999380738,None,0,,,,Female,30,010,2022-10-28_10h22.26.515,IAT,2022.2.2,60.119457333486245,
"Part 1 of 7

Put a left finger on the 'E' key for items that belong to the category on the left.
Put a right finger on the 'I' key for items that belong to the category on the right.
Items will appear one at a time.

If you make a mistake, a red X will appear. Press the other key to continue.
GO AS FAST AS YOU CAN while being accurate.

Press 'E' or 'I' when you are ready to start.",Black People,White People, , , ,instr_1.jpg,1,text_trial_type_1,img_trial_type_1,0,0,0,0,6,1,13,0,,,,,,,,,72.99887180002406,72.99887180002406,72.99887180002406,72.99887180002406,72.99887180002406,72.99887180002406,73.29802950005978,73.29802950005978,73.29802950005978,73.29802950005978,73.29802950005978,e,1,0.6216768997255713,None,0,,,,Female,30,010,2022-10-28_10h22.26.515,IAT,2022.2.2,60.119457333486245,
"Part 1 of 7

Put a left finger on the 'E' key for items that belong to the category on the left.
Put a right finger on the 'I' key for items that belong to the category on the right.
Items will appear one at a time.

If you make a mistake, a red X will appear. Press the other key to continue.
GO AS FAST AS YOU CAN while being accurate.

Press 'E' or 'I' when you are ready to start.",Black People,White People, , , ,instr_1.jpg,1,text_trial_type_1,img_trial_type_1,0,0,0,0,7,0,14,0,,,,,,,,,73.9470126000233,73.9470126000233,73.9470126000233,73.9470126000233,73.9470126000233,73.9470126000233,74.24824060010724,74.24824060010724,74.24824060010724,74.24824060010724,74.24824060010724,e,1,0.4791823998093605,None,0,,,,Female,30,010,2022-10-28_10h22.26.515,IAT,2022.2.2,60.119457333486245,
"Part 1 of 7

Put a left finger on the 'E' key for items that belong to the category on the left.
Put a right finger on the 'I' key for items that belong to the category on the right.
Items will appear one at a time.

If you make a mistake, a red X will appear. Press the other key to continue.
GO AS FAST AS YOU CAN while being accurate.

Press 'E' or 'I' when you are ready to start.",Black People,White People, , , ,instr_1.jpg,2,text_trial_type_2,img_trial_type_2,0,0,0,0,7,1,15,1,,,,,,,,,74.74761030008085,74.74761030008085,74.74761030008085,74.74761030008085,74.74761030008085,74.74761030008085,75.04796559992246,75.04796559992246,75.04796559992246,75.04796559992246,75.04796559992246,i,1,0.5062390000093728,None,0,,,,Female,30,010,2022-10-28_10h22.26.515,IAT,2022.2.2,60.119457333486245,
"Part 1 of 7

Put a left finger on the 'E' key for items that belong to the category on the left.
Put a right finger on the 'I' key for items that belong to the category on the right.
Items will appear one at a time.

If you make a mistake, a red X will appear. Press the other key to continue.
GO AS FAST AS YOU CAN while being accurate.

Press 'E' or 'I' when you are ready to start.",Black People,White People, , , ,instr_1.jpg,1,text_trial_type_1,img_trial_type_1,0,0,0,0,8,0,16,0,,,,,,,,,75.58034169999883,75.58034169999883,75.58034169999883,75.58034169999883,75.58034169999883,75.58034169999883,75.8816132999491,75.8816132999491,75.8816132999491,75.8816132999491,75.8816132999491,e,1,0.7223160997964442,None,0,,,,Female,30,010,2022-10-28_10h22.26.515,IAT,2022.2.2,60.119457333486245,
"Part 1 of 7

Put a left finger on the 'E' key for items that belong to the category on the left.
Put a right finger on the 'I' key for items that belong to the category on the right.
Items will appear one at a time.

If you make a mistake, a red X will appear. Press the other key to continue.
GO AS FAST AS YOU CAN while being accurate.

Press 'E' or 'I' when you are ready to start.",Black People,White People, , , ,instr_1.jpg,1,text_trial_type_1,img_trial_type_1,0,0,0,0,8,1,17,0,,,,,,,,,76.63053339999169,76.63053339999169,76.63053339999169,76.63053339999169,76.63053339999169,76.63053339999169,76.9317119999323,76.9317119999323,76.9317119999323,76.9317119999323,76.9317119999323,e,1,0.685554799856618,None,0,,,,Female,30,010,2022-10-28_10h22.26.515,IAT,2022.2.2,60.119457333486245,
"Part 1 of 7

Put a left finger on the 'E' key for items that belong to the category on the left.
Put a right finger on the 'I' key for items that belong to the category on the right.
Items will appear one at a time.

If you make a mistake, a red X will appear. Press the other key to continue.
GO AS FAST AS YOU CAN while being accurate.

Press 'E' or 'I' when you are ready to start.",Black People,White People, , , ,instr_1.jpg,2,text_trial_type_2,img_trial_type_2,0,0,0,0,9,0,18,1,,,,,,,,,77.64718730002642,77.64718730002642,77.64718730002642,77.64718730002642,77.64718730002642,77.64718730002642,77.9483241001144,77.9483241001144,77.9483241001144,77.9483241001144,77.9483241001144,i,1,0.5209742998704314,None,0,,,,Female,30,010,2022-10-28_10h22.26.515,IAT,2022.2.2,60.119457333486245,
"Part 1 of 7

Put a left finger on the 'E' key for items that belong to the category on the left.
Put a right finger on the 'I' key for items that belong to the category on the right.
Items will appear one at a time.

If you make a mistake, a red X will appear. Press the other key to continue.
GO AS FAST AS YOU CAN while being accurate.

Press 'E' or 'I' when you are ready to start.",Black People,White People, , , ,instr_1.jpg,1,text_trial_type_1,img_trial_type_1,0,0,0,0,9,1,19,0,,,,,,,,,78.49705579993315,78.49705579993315,78.49705579993315,78.49705579993315,78.49705579993315,78.49705579993315,78.79817790002562,78.79817790002562,78.79817790002562,78.79817790002562,78.79817790002562,e,1,0.5931578997988254,None,0,,,,Female,30,010,2022-10-28_10h22.26.515,IAT,2022.2.2,60.119457333486245,
"Part 2 of 7

Put a left finger on the 'E' key for items that belong to the category on the left.
Put a right finger on the 'I' key for items that belong to the category on the right.

If you make a mistake, a red X will appear. Press the other key to continue.
GO AS FAST AS YOU CAN while being accurate.

Press 'E' or 'I' when you are ready to start.", , ,Bad,Good, ,instr_2.jpg,4,text_trial_type_4,img_trial_type_4,0,1,1,1,0,0,0,1,80.16709459992126,80.16709459992126,80.16709459992126,80.16709459992126,80.16709459992126,80.16709459992126,80.16709459992126,82.16575250006281,87.31802110001445,87.31802110001445,87.31802110001445,87.31802110001445,87.31802110001445,87.31802110001445,87.58213349990547,87.58213349990547,87.58213349990547,87.58213349990547,87.58213349990547,e,1,1.274084699805826,None,0,,,,Female,30,010,2022-10-28_10h22.26.515,IAT,2022.2.2,60.119457333486245,
"Part 2 of 7

Put a left finger on the 'E' key for items that belong to the category on the left.
Put a right finger on the 'I' key for items that belong to the category on the right.

If you make a mistake, a red X will appear. Press the other key to continue.
GO AS FAST AS YOU CAN while being accurate.

Press 'E' or 'I' when you are ready to start.", , ,Bad,Good, ,instr_2.jpg,3,text_trial_type_3,img_trial_type_3,0,1,1,1,0,1,1,0,,,,,,,,,88.8958050000947,88.8958050000947,88.8958050000947,88.8958050000947,88.8958050000947,88.8958050000947,89.18153159995563,89.18153159995563,89.18153159995563,89.18153159995563,89.18153159995563,i,1,0.692181000020355,None,0,,,,Female,30,010,2022-10-28_10h22.26.515,IAT,2022.2.2,60.119457333486245,
"Part 2 of 7

Put a left finger on the 'E' key for items that belong to the category on the left.
Put a right finger on the 'I' key for items that belong to the category on the right.

If you make a mistake, a red X will appear. Press the other key to continue.
GO AS FAST AS YOU CAN while being accurate.

Press 'E' or 'I' when you are ready to start.", , ,Bad,Good, ,instr_2.jpg,3,text_trial_type_3,img_trial_type_3,0,1,1,1,1,0,2,0,,,,,,,,,89.90657040011138,89.90657040011138,89.90657040011138,89.90657040011138,89.90657040011138,89.90657040011138,90.19898040010594,90.19898040010594,90.19898040010594,90.19898040010594,90.19898040010594,i,1,0.6958103999495506,None,0,,,,Female,30,010,2022-10-28_10h22.26.515,IAT,2022.2.2,60.119457333486245,
"Part 2 of 7

Put a left finger on the 'E' key for items that belong to the category on the left.
Put a right finger on the 'I' key for items that belong to the category on the right.

If you make a mistake, a red X will appear. Press the other key to continue.
GO AS FAST AS YOU CAN while being accurate.

Press 'E' or 'I' when you are ready to start.", , ,Bad,Good, ,instr_2.jpg,3,text_trial_type_3,img_trial_type_3,0,1,1,1,1,1,3,0,,,,,,,,,90.92473599989899,90.92473599989899,90.92473599989899,90.92473599989899,90.92473599989899,90.92473599989899,91.21547830011696,91.21547830011696,91.21547830011696,91.21547830011696,91.21547830011696,i,1,0.6576081998646259,None,0,,,,Female,30,010,2022-10-28_10h22.26.515,IAT,2022.2.2,60.119457333486245,
"Part 2 of 7

Put a left finger on the 'E' key for items that belong to the category on the left.
Put a right finger on the 'I' key for items that belong to the category on the right.

If you make a mistake, a red X will appear. Press the other key to continue.
GO AS FAST AS YOU CAN while being accurate.

Press 'E' or 'I' when you are ready to start.", , ,Bad,Good, ,instr_2.jpg,3,text_trial_type_3,img_trial_type_3,0,1,1,1,2,0,4,0,,,,,,,,,91.9087082000915,91.9087082000915,91.9087082000915,91.9087082000915,91.9087082000915,91.9087082000915,92.19855970004573,92.19855970004573,92.19855970004573,92.19855970004573,92.19855970004573,i,1,0.5156729996670038,None,0,,,,Female,30,010,2022-10-28_10h22.26.515,IAT,2022.2.2,60.119457333486245,
"Part 2 of 7

Put a left finger on the 'E' key for items that belong to the category on the left.
Put a right finger on the 'I' key for items that belong to the category on the right.

If you make a mistake, a red X will appear. Press the other key to continue.
GO AS FAST AS YOU CAN while being accurate.

Press 'E' or 'I' when you are ready to start.", , ,Bad,Good, ,instr_2.jpg,3,text_trial_type_3,img_trial_type_3,0,1,1,1,2,1,5,0,,,,,,,,,92.74459109990858,92.74459109990858,92.74459109990858,92.74459109990858,92.74459109990858,92.74459109990858,93.0322879999876,93.0322879999876,93.0322879999876,93.0322879999876,93.0322879999876,i,1,0.555023199878633,None,0,,,,Female,30,010,2022-10-28_10h22.26.515,IAT,2022.2.2,60.119457333486245,
"Part 2 of 7

Put a left finger on the 'E' key for items that belong to the category on the left.
Put a right finger on the 'I' key for items that belong to the category on the right.

If you make a mistake, a red X will appear. Press the other key to continue.
GO AS FAST AS YOU CAN while being accurate.

Press 'E' or 'I' when you are ready to start.", , ,Bad,Good, ,instr_2.jpg,4,text_trial_type_4,img_trial_type_4,0,1,1,1,3,0,6,1,,,,,,,,,93.62758120009676,93.62758120009676,93.62758120009676,93.62758120009676,93.62758120009676,93.62758120009676,93.9150723000057,93.9150723000057,93.9150723000057,93.9150723000057,93.9150723000057,e,1,0.6924309998285025,None,0,,,,Female,30,010,2022-10-28_10h22.26.515,IAT,2022.2.2,60.119457333486245,
"Part 2 of 7

Put a left finger on the 'E' key for items that belong to the category on the left.
Put a right finger on the 'I' key for items that belong to the category on the right.

If you make a mistake, a red X will appear. Press the other key to continue.
GO AS FAST AS YOU CAN while being accurate.

Press 'E' or 'I' when you are ready to start.", , ,Bad,Good, ,instr_2.jpg,4,text_trial_type_4,img_trial_type_4,0,1,1,1,3,1,7,1,,,,,,,,,94.645558899967,94.645558899967,94.645558899967,94.645558899967,94.645558899967,94.645558899967,94.93210069998167,94.93210069998167,94.93210069998167,94.93210069998167,94.93210069998167,e,1,0.7566808997653425,None,0,,,,Female,30,010,2022-10-28_10h22.26.515,IAT,2022.2.2,60.119457333486245,
"Part 2 of 7

Put a left finger on the 'E' key for items that belong to the category on the left.
Put a right finger on the 'I' key for items that belong to the category on the right.

If you make a mistake, a red X will appear. Press the other key to continue.
GO AS FAST AS YOU CAN while being accurate.

Press 'E' or 'I' when you are ready to start.", , ,Bad,Good, ,instr_2.jpg,4,text_trial_type_4,img_trial_type_4,0,1,1,1,4,0,8,1,,,,,,,,,95.72636700002477,95.72636700002477,95.72636700002477,95.72636700002477,95.72636700002477,95.72636700002477,96.01532189990394,96.01532189990394,96.01532189990394,96.01532189990394,96.01532189990394,e,1,0.49692259985022247,None,0,,,,Female,30,010,2022-10-28_10h22.26.515,IAT,2022.2.2,60.119457333486245,
"Part 2 of 7

Put a left finger on the 'E' key for items that belong to the category on the left.
Put a right finger on the 'I' key for items that belong to the category on the right.

If you make a mistake, a red X will appear. Press the other key to continue.
GO AS FAST AS YOU CAN while being accurate.

Press 'E' or 'I' when you are ready to start.", , ,Bad,Good, ,instr_2.jpg,4,text_trial_type_4,img_trial_type_4,0,1,1,1,4,1,9,1,,,,,,,,,96.54431369993836,96.54431369993836,96.54431369993836,96.54431369993836,96.54431369993836,96.54431369993836,96.83259469992481,96.83259469992481,96.83259469992481,96.83259469992481,96.83259469992481,e,1,0.5629474997986108,None,0,,,,Female,30,010,2022-10-28_10h22.26.515,IAT,2022.2.2,60.119457333486245,
"Part 2 of 7

Put a left finger on the 'E' key for items that belong to the category on the left.
Put a right finger on the 'I' key for items that belong to the category on the right.

If you make a mistake, a red X will appear. Press the other key to continue.
GO AS FAST AS YOU CAN while being accurate.

Press 'E' or 'I' when you are ready to start.", , ,Bad,Good, ,instr_2.jpg,3,text_trial_type_3,img_trial_type_3,0,1,1,1,5,0,10,0,,,,,,,,,97.4253793999087,97.4253793999087,97.4253793999087,97.4253793999087,97.4253793999087,97.4253793999087,97.71508300001733,97.71508300001733,97.71508300001733,97.71508300001733,97.71508300001733,i,1,0.5640530998352915,None,0,,,,Female,30,010,2022-10-28_10h22.26.515,IAT,2022.2.2,60.119457333486245,
"Part 2 of 7

Put a left finger on the 'E' key for items that belong to the category on the left.
Put a right finger on the 'I' key for items that belong to the category on the right.

If you make a mistake, a red X will appear. Press the other key to continue.
GO AS FAST AS YOU CAN while being accurate.

Press 'E' or 'I' when you are ready to start.", , ,Bad,Good, ,instr_2.jpg,4,text_trial_type_4,img_trial_type_4,0,1,1,1,5,1,11,1,,,,,,,,,98.31031440012157,98.31031440012157,98.31031440012157,98.31031440012157,98.31031440012157,98.31031440012157,98.59943019994535,98.59943019994535,98.59943019994535,98.59943019994535,98.59943019994535,e,1,0.6097959999460727,None,0,,,,Female,30,010,2022-10-28_10h22.26.515,IAT,2022.2.2,60.119457333486245,
"Part 2 of 7

Put a left finger on the 'E' key for items that belong to the category on the left.
Put a right finger on the 'I' key for items that belong to the category on the right.

If you make a mistake, a red X will appear. Press the other key to continue.
GO AS FAST AS YOU CAN while being accurate.

Press 'E' or 'I' when you are ready to start.", , ,Bad,Good, ,instr_2.jpg,3,text_trial_type_3,img_trial_type_3,0,1,1,1,6,0,12,0,,,,,,,,,99.24141069990583,99.24141069990583,99.24141069990583,99.24141069990583,99.24141069990583,99.24141069990583,99.53267570002936,99.53267570002936,99.53267570002936,99.53267570002936,99.53267570002936,i,1,0.599358499981463,None,0,,,,Female,30,010,2022-10-28_10h22.26.515,IAT,2022.2.2,60.119457333486245,
"Part 2 of 7

Put a left finger on the 'E' key for items that belong to the category on the left.
Put a right finger on the 'I' key for items that belong to the category on the right.

If you make a mistake, a red X will appear. Press the other key to continue.
GO AS FAST AS YOU CAN while being accurate.

Press 'E' or 'I' when you are ready to start.", , ,Bad,Good, ,instr_2.jpg,3,text_trial_type_3,img_trial_type_3,0,1,1,1,6,1,13,0,,,,,,,,,100.15785910002887,100.15785910002887,100.15785910002887,100.15785910002887,100.15785910002887,100.15785910002887,100.44863080000505,100.44863080000505,100.44863080000505,100.44863080000505,100.44863080000505,i,1,0.543487099930644,None,0,,,,Female,30,010,2022-10-28_10h22.26.515,IAT,2022.2.2,60.119457333486245,
"Part 2 of 7

Put a left finger on the 'E' key for items that belong to the category on the left.
Put a right finger on the 'I' key for items that belong to the category on the right.

If you make a mistake, a red X will appear. Press the other key to continue.
GO AS FAST AS YOU CAN while being accurate.

Press 'E' or 'I' when you are ready to start.", , ,Bad,Good, ,instr_2.jpg,4,text_trial_type_4,img_trial_type_4,0,1,1,1,7,0,14,1,,,,,,,,,101.02436210005544,101.02436210005544,101.02436210005544,101.02436210005544,101.02436210005544,101.02436210005544,101.31557080009952,101.31557080009952,101.31557080009952,101.31557080009952,101.31557080009952,e,1,0.6641545998863876,None,0,,,,Female,30,010,2022-10-28_10h22.26.515,IAT,2022.2.2,60.119457333486245,
"Part 2 of 7

Put a left finger on the 'E' key for items that belong to the category on the left.
Put a right finger on the 'I' key for items that belong to the category on the right.

If you make a mistake, a red X will appear. Press the other key to continue.
GO AS FAST AS YOU CAN while being accurate.

Press 'E' or 'I' when you are ready to start.", , ,Bad,Good, ,instr_2.jpg,4,text_trial_type_4,img_trial_type_4,0,1,1,1,7,1,15,1,,,,,,,,,102.00833390001208,102.00833390001208,102.00833390001208,102.00833390001208,102.00833390001208,102.00833390001208,102.29912340012379,102.29912340012379,102.29912340012379,102.29912340012379,102.29912340012379,e,1,0.6786669997964054,None,0,,,,Female,30,010,2022-10-28_10h22.26.515,IAT,2022.2.2,60.119457333486245,
"Part 2 of 7

Put a left finger on the 'E' key for items that belong to the category on the left.
Put a right finger on the 'I' key for items that belong to the category on the right.

If you make a mistake, a red X will appear. Press the other key to continue.
GO AS FAST AS YOU CAN while being accurate.

Press 'E' or 'I' when you are ready to start.", , ,Bad,Good, ,instr_2.jpg,4,text_trial_type_4,img_trial_type_4,0,1,1,1,8,0,16,1,,,,,,,,,103.01245129993185,103.01245129993185,103.01245129993185,103.01245129993185,103.01245129993185,103.01245129993185,103.29826449998654,103.29826449998654,103.29826449998654,103.29826449998654,103.29826449998654,e,1,0.5602519998792559,None,0,,,,Female,30,010,2022-10-28_10h22.26.515,IAT,2022.2.2,60.119457333486245,
"Part 2 of 7

Put a left finger on the 'E' key for items that belong to the category on the left.
Put a right finger on the 'I' key for items that belong to the category on the right.

If you make a mistake, a red X will appear. Press the other key to continue.
GO AS FAST AS YOU CAN while being accurate.

Press 'E' or 'I' when you are ready to start.", , ,Bad,Good, ,instr_2.jpg,4,text_trial_type_4,img_trial_type_4,0,1,1,1,8,1,17,1,,,,,,,,,103.89056030008942,103.89056030008942,103.89056030008942,103.89056030008942,103.89056030008942,103.89056030008942,104.18317100009881,104.18317100009881,104.18317100009881,104.18317100009881,104.18317100009881,e,1,0.5322146997787058,None,0,,,,Female,30,010,2022-10-28_10h22.26.515,IAT,2022.2.2,60.119457333486245,
"Part 2 of 7

Put a left finger on the 'E' key for items that belong to the category on the left.
Put a right finger on the 'I' key for items that belong to the category on the right.

If you make a mistake, a red X will appear. Press the other key to continue.
GO AS FAST AS YOU CAN while being accurate.

Press 'E' or 'I' when you are ready to start.", , ,Bad,Good, ,instr_2.jpg,3,text_trial_type_3,img_trial_type_3,0,1,1,1,9,0,18,0,,,,,,,,,104.74350550002418,104.74350550002418,104.74350550002418,104.74350550002418,104.74350550002418,104.74350550002418,105.03244370012544,105.03244370012544,105.03244370012544,105.03244370012544,105.03244370012544,i,1,0.5852971998974681,None,0,,,,Female,30,010,2022-10-28_10h22.26.515,IAT,2022.2.2,60.119457333486245,
"Part 2 of 7

Put a left finger on the 'E' key for items that belong to the category on the left.
Put a right finger on the 'I' key for items that belong to the category on the right.

If you make a mistake, a red X will appear. Press the other key to continue.
GO AS FAST AS YOU CAN while being accurate.

Press 'E' or 'I' when you are ready to start.", , ,Bad,Good, ,instr_2.jpg,3,text_trial_type_3,img_trial_type_3,0,1,1,1,9,1,19,0,,,,,,,,,105.681174099911,105.681174099911,105.681174099911,105.681174099911,105.681174099911,105.681174099911,105.96556939999573,105.96556939999573,105.96556939999573,105.96556939999573,105.96556939999573,i,1,0.49280170002020895,None,0,,,,Female,30,010,2022-10-28_10h22.26.515,IAT,2022.2.2,60.119457333486245,
"Part 3 of 7

Use the 'E' key for the categories on the left.
Use the 'I' key for the categories on the right. 
Each item belongs to only one category.

If you make a mistake, a red X will appear. Press the other key to continue.
GO AS FAST AS YOU CAN while being accurate.

Press 'E' or 'I' when you are ready to start.",Black People,White People,Bad,Good,or,instr_3.jpg,2,text_trial_type_2,img_trial_type_2,0,2,2,2,0,0,0,1,107.23383629997261,107.23383629997261,107.23383629997261,107.23383629997261,107.23383629997261,107.23383629997261,107.23383629997261,109.21620190003887,120.35612879996188,120.35612879996188,120.35612879996188,120.35612879996188,120.35612879996188,120.35612879996188,120.61639459989965,120.61639459989965,120.61639459989965,120.61639459989965,120.61639459989965,i,1,1.1273274996783584,None,0,,,,Female,30,010,2022-10-28_10h22.26.515,IAT,2022.2.2,60.119457333486245,
"Part 3 of 7

Use the 'E' key for the categories on the left.
Use the 'I' key for the categories on the right. 
Each item belongs to only one category.

If you make a mistake, a red X will appear. Press the other key to continue.
GO AS FAST AS YOU CAN while being accurate.

Press 'E' or 'I' when you are ready to start.",Black People,White People,Bad,Good,or,instr_3.jpg,4,text_trial_type_4,img_trial_type_4,0,2,2,2,0,1,1,3,,,,,,,,,121.79437100002542,121.79437100002542,121.79437100002542,121.79437100002542,121.79437100002542,121.79437100002542,122.06621600012295,122.06621600012295,122.06621600012295,122.06621600012295,122.06621600012295,e,1,0.9232740998268127,None,0,,,,Female,30,010,2022-10-28_10h22.26.515,IAT,2022.2.2,60.119457333486245,
"Part 3 of 7

Use the 'E' key for the categories on the left.
Use the 'I' key for the categories on the right. 
Each item belongs to only one category.

If you make a mistake, a red X will appear. Press the other key to continue.
GO AS FAST AS YOU CAN while being accurate.

Press 'E' or 'I' when you are ready to start.",Black People,White People,Bad,Good,or,instr_3.jpg,3,text_trial_type_3,img_trial_type_3,0,2,2,2,0,2,2,2,,,,,,,,,123.02529009990394,123.02529009990394,123.02529009990394,123.02529009990394,123.02529009990394,123.02529009990394,123.31642369995825,123.31642369995825,123.31642369995825,123.31642369995825,123.31642369995825,i,1,0.9524715000297874,None,0,,,,Female,30,010,2022-10-28_10h22.26.515,IAT,2022.2.2,60.119457333486245,
"Part 3 of 7

Use the 'E' key for the categories on the left.
Use the 'I' key for the categories on the right. 
Each item belongs to only one category.

If you make a mistake, a red X will appear. Press the other key to continue.
GO AS FAST AS YOU CAN while being accurate.

Press 'E' or 'I' when you are ready to start.",Black People,White People,Bad,Good,or,instr_3.jpg,1,text_trial_type_1,img_trial_type_1,0,2,2,2,0,3,3,0,,,,,,,,,124.30397460004315,124.30397460004315,124.30397460004315,124.30397460004315,124.30397460004315,124.30397460004315,124.59922099998221,124.59922099998221,124.59922099998221,124.59922099998221,124.59922099998221,e,1,1.2179243999999017,None,0,,,,Female,30,010,2022-10-28_10h22.26.515,IAT,2022.2.2,60.119457333486245,
"Part 3 of 7

Use the 'E' key for the categories on the left.
Use the 'I' key for the categories on the right. 
Each item belongs to only one category.

If you make a mistake, a red X will appear. Press the other key to continue.
GO AS FAST AS YOU CAN while being accurate.

Press 'E' or 'I' when you are ready to start.",Black People,White People,Bad,Good,or,instr_3.jpg,4,text_trial_type_4,img_trial_type_4,0,2,2,2,1,0,4,3,,,,,,,,,125.86687400005758,125.86687400005758,125.86687400005758,125.86687400005758,125.86687400005758,125.86687400005758,126.1493806000799,126.1493806000799,126.1493806000799,126.1493806000799,126.1493806000799,e,1,0.8745808999519795,None,0,,,,Female,30,010,2022-10-28_10h22.26.515,IAT,2022.2.2,60.119457333486245,
"Part 3 of 7

Use the 'E' key for the categories on the left.
Use the 'I' key for the categories on the right. 
Each item belongs to only one category.

If you make a mistake, a red X will appear. Press the other key to continue.
GO AS FAST AS YOU CAN while being accurate.

Press 'E' or 'I' when you are ready to start.",Black People,White People,Bad,Good,or,instr_3.jpg,2,text_trial_type_2,img_trial_type_2,0,2,2,2,1,1,5,1,,,,,,,,,127.05345349991694,127.05345349991694,127.05345349991694,127.05345349991694,127.05345349991694,127.05345349991694,127.34962170012295,127.34962170012295,127.34962170012295,127.34962170012295,127.34962170012295,i,1,1.3421414999756962,None,0,,,,Female,30,010,2022-10-28_10h22.26.515,IAT,2022.2.2,60.119457333486245,
"Part 3 of 7

Use the 'E' key for the categories on the left.
Use the 'I' key for the categories on the right. 
Each item belongs to only one category.

If you make a mistake, a red X will appear. Press the other key to continue.
GO AS FAST AS YOU CAN while being accurate.

Press 'E' or 'I' when you are ready to start.",Black People,White People,Bad,Good,or,instr_3.jpg,3,text_trial_type_3,img_trial_type_3,0,2,2,2,1,2,6,2,,,,,,,,,128.725251799915,128.725251799915,128.725251799915,128.725251799915,128.725251799915,128.725251799915,129.0162297000643,129.0162297000643,129.0162297000643,129.0162297000643,129.0162297000643,i,1,0.8267401999328285,None,0,,,,Female,30,010,2022-10-28_10h22.26.515,IAT,2022.2.2,60.119457333486245,
"Part 3 of 7

Use the 'E' key for the categories on the left.
Use the 'I' key for the categories on the right. 
Each item belongs to only one category.

If you make a mistake, a red X will appear. Press the other key to continue.
GO AS FAST AS YOU CAN while being accurate.

Press 'E' or 'I' when you are ready to start.",Black People,White People,Bad,Good,or,instr_3.jpg,4,text_trial_type_4,img_trial_type_4,0,2,2,2,1,3,7,3,,,,,,,,,129.87521709990688,129.87521709990688,129.87521709990688,129.87521709990688,129.87521709990688,129.87521709990688,130.16667790012434,130.16667790012434,130.16667790012434,130.16667790012434,130.16667790012434,e,1,0.7140701997559518,None,0,,,,Female,30,010,2022-10-28_10h22.26.515,IAT,2022.2.2,60.119457333486245,
"Part 3 of 7

Use the 'E' key for the categories on the left.
Use the 'I' key for the categories on the right. 
Each item belongs to only one category.

If you make a mistake, a red X will appear. Press the other key to continue.
GO AS FAST AS YOU CAN while being accurate.

Press 'E' or 'I' when you are ready to start.",Black People,White People,Bad,Good,or,instr_3.jpg,1,text_trial_type_1,img_trial_type_1,0,2,2,2,2,0,8,0,,,,,,,,,130.90361319994554,130.90361319994554,130.90361319994554,130.90361319994554,130.90361319994554,130.90361319994554,131.1991397999227,131.1991397999227,131.1991397999227,131.1991397999227,131.1991397999227,e,1,0.7328171997796744,None,0,,,,Female,30,010,2022-10-28_10h22.26.515,IAT,2022.2.2,60.119457333486245,
"Part 3 of 7

Use the 'E' key for the categories on the left.
Use the 'I' key for the categories on the right. 
Each item belongs to only one category.

If you make a mistake, a red X will appear. Press the other key to continue.
GO AS FAST AS YOU CAN while being accurate.

Press 'E' or 'I' when you are ready to start.",Black People,White People,Bad,Good,or,instr_3.jpg,1,text_trial_type_1,img_trial_type_1,0,2,2,2,2,1,9,0,,,,,,,,,131.9487449999433,131.9487449999433,131.9487449999433,131.9487449999433,131.9487449999433,131.9487449999433,132.24974030000158,132.24974030000158,132.24974030000158,132.24974030000158,132.24974030000158,e,1,0.6940875998698175,None,0,,,,Female,30,010,2022-10-28_10h22.26.515,IAT,2022.2.2,60.119457333486245,
"Part 3 of 7

Use the 'E' key for the categories on the left.
Use the 'I' key for the categories on the right. 
Each item belongs to only one category.

If you make a mistake, a red X will appear. Press the other key to continue.
GO AS FAST AS YOU CAN while being accurate.

Press 'E' or 'I' when you are ready to start.",Black People,White People,Bad,Good,or,instr_3.jpg,1,text_trial_type_1,img_trial_type_1,0,2,2,2,2,2,10,0,,,,,,,,,132.96555100008845,132.96555100008845,132.96555100008845,132.96555100008845,132.96555100008845,132.96555100008845,133.2665132000111,133.2665132000111,133.2665132000111,133.2665132000111,133.2665132000111,e,1,0.5765984999015927,None,0,,,,Female,30,010,2022-10-28_10h22.26.515,IAT,2022.2.2,60.119457333486245,
"Part 3 of 7

Use the 'E' key for the categories on the left.
Use the 'I' key for the categories on the right. 
Each item belongs to only one category.

If you make a mistake, a red X will appear. Press the other key to continue.
GO AS FAST AS YOU CAN while being accurate.

Press 'E' or 'I' when you are ready to start.",Black People,White People,Bad,Good,or,instr_3.jpg,2,text_trial_type_2,img_trial_type_2,0,2,2,2,2,3,11,1,,,,,,,,,133.86512580001727,133.86512580001727,133.86512580001727,133.86512580001727,133.86512580001727,133.86512580001727,134.1664793000091,134.1664793000091,134.1664793000091,134.1664793000091,134.1664793000091,i,1,0.6820260998792946,None,0,,,,Female,30,010,2022-10-28_10h22.26.515,IAT,2022.2.2,60.119457333486245,
"Part 3 of 7

Use the 'E' key for the categories on the left.
Use the 'I' key for the categories on the right. 
Each item belongs to only one category.

If you make a mistake, a red X will appear. Press the other key to continue.
GO AS FAST AS YOU CAN while being accurate.

Press 'E' or 'I' when you are ready to start.",Black People,White People,Bad,Good,or,instr_3.jpg,4,text_trial_type_4,img_trial_type_4,0,2,2,2,3,0,12,3,,,,,,,,,134.87769529991783,134.87769529991783,134.87769529991783,134.87769529991783,134.87769529991783,134.87769529991783,135.16630079993047,135.16630079993047,135.16630079993047,135.16630079993047,135.16630079993047,e,1,0.6217572998721153,None,0,,,,Female,30,010,2022-10-28_10h22.26.515,IAT,2022.2.2,60.119457333486245,
"Part 3 of 7

Use the 'E' key for the categories on the left.
Use the 'I' key for the categories on the right. 
Each item belongs to only one category.

If you make a mistake, a red X will appear. Press the other key to continue.
GO AS FAST AS YOU CAN while being accurate.

Press 'E' or 'I' when you are ready to start.",Black People,White People,Bad,Good,or,instr_3.jpg,2,text_trial_type_2,img_trial_type_2,0,2,2,2,3,1,13,1,,,,,,,,,135.82192680006847,135.82192680006847,135.82192680006847,135.82192680006847,135.82192680006847,135.82192680006847,136.11638689995743,136.11638689995743,136.11638689995743,136.11638689995743,136.11638689995743,i,1,0.8303646999411285,None,0,,,,Female,30,010,2022-10-28_10h22.26.515,IAT,2022.2.2,60.119457333486245,
"Part 3 of 7

Use the 'E' key for the categories on the left.
Use the 'I' key for the categories on the right. 
Each item belongs to only one category.

If you make a mistake, a red X will appear. Press the other key to continue.
GO AS FAST AS YOU CAN while being accurate.

Press 'E' or 'I' when you are ready to start.",Black People,White People,Bad,Good,or,instr_3.jpg,4,text_trial_type_4,img_trial_type_4,0,2,2,2,3,2,14,3,,,,,,,,,136.9768743000459,136.9768743000459,136.9768743000459,136.9768743000459,136.9768743000459,136.9768743000459,137.2667863999959,137.2667863999959,137.2667863999959,137.2667863999959,137.2667863999959,e,1,0.8129394999705255,None,0,,,,Female,30,010,2022-10-28_10h22.26.515,IAT,2022.2.2,60.119457333486245,
"Part 3 of 7

Use the 'E' key for the categories on the left.
Use the 'I' key for the categories on the right. 
Each item belongs to only one category.

If you make a mistake, a red X will appear. Press the other key to continue.
GO AS FAST AS YOU CAN while being accurate.

Press 'E' or 'I' when you are ready to start.",Black People,White People,Bad,Good,or,instr_3.jpg,3,text_trial_type_3,img_trial_type_3,0,2,2,2,3,3,15,2,,,,,,,,,138.11003690003417,138.11003690003417,138.11003690003417,138.11003690003417,138.11003690003417,138.11003690003417,138.39976750011556,138.39976750011556,138.39976750011556,138.39976750011556,138.39976750011556,i,1,0.5924187998753041,None,0,,,,Female,30,010,2022-10-28_10h22.26.515,IAT,2022.2.2,60.119457333486245,
"Part 3 of 7

Use the 'E' key for the categories on the left.
Use the 'I' key for the categories on the right. 
Each item belongs to only one category.

If you make a mistake, a red X will appear. Press the other key to continue.
GO AS FAST AS YOU CAN while being accurate.

Press 'E' or 'I' when you are ready to start.",Black People,White People,Bad,Good,or,instr_3.jpg,3,text_trial_type_3,img_trial_type_3,0,2,2,2,4,0,16,2,,,,,,,,,139.0268055999186,139.0268055999186,139.0268055999186,139.0268055999186,139.0268055999186,139.0268055999186,139.3164949999191,139.3164949999191,139.3164949999191,139.3164949999191,139.3164949999191,i,1,0.6822726998943835,None,0,,,,Female,30,010,2022-10-28_10h22.26.515,IAT,2022.2.2,60.119457333486245,
"Part 3 of 7

Use the 'E' key for the categories on the left.
Use the 'I' key for the categories on the right. 
Each item belongs to only one category.

If you make a mistake, a red X will appear. Press the other key to continue.
GO AS FAST AS YOU CAN while being accurate.

Press 'E' or 'I' when you are ready to start.",Black People,White People,Bad,Good,or,instr_3.jpg,3,text_trial_type_3,img_trial_type_3,0,2,2,2,4,1,17,2,,,,,,,,,140.0296493000351,140.0296493000351,140.0296493000351,140.0296493000351,140.0296493000351,140.0296493000351,140.3167673998978,140.3167673998978,140.3167673998978,140.3167673998978,140.3167673998978,i,1,0.5644266000017524,None,0,,,,Female,30,010,2022-10-28_10h22.26.515,IAT,2022.2.2,60.119457333486245,
"Part 3 of 7

Use the 'E' key for the categories on the left.
Use the 'I' key for the categories on the right. 
Each item belongs to only one category.

If you make a mistake, a red X will appear. Press the other key to continue.
GO AS FAST AS YOU CAN while being accurate.

Press 'E' or 'I' when you are ready to start.",Black People,White People,Bad,Good,or,instr_3.jpg,1,text_trial_type_1,img_trial_type_1,0,2,2,2,4,2,18,0,,,,,,,,,140.90406160010025,140.90406160010025,140.90406160010025,140.90406160010025,140.90406160010025,140.90406160010025,141.19989729998633,141.19989729998633,141.19989729998633,141.19989729998633,141.19989729998633,e,1,0.5982596999965608,None,0,,,,Female,30,010,2022-10-28_10h22.26.515,IAT,2022.2.2,60.119457333486245,
"Part 3 of 7

Use the 'E' key for the categories on the left.
Use the 'I' key for the categories on the right. 
Each item belongs to only one category.

If you make a mistake, a red X will appear. Press the other key to continue.
GO AS FAST AS YOU CAN while being accurate.

Press 'E' or 'I' when you are ready to start.",Black People,White People,Bad,Good,or,instr_3.jpg,2,text_trial_type_2,img_trial_type_2,0,2,2,2,4,3,19,1,,,,,,,,,141.81528820004314,141.81528820004314,141.81528820004314,141.81528820004314,141.81528820004314,141.81528820004314,142.11661350005306,142.11661350005306,142.11661350005306,142.11661350005306,142.11661350005306,i,1,0.5588624998927116,None,0,,,,Female,30,010,2022-10-28_10h22.26.515,IAT,2022.2.2,60.119457333486245,
"Part 4 of 7

This is the same as the previous part.

Use the 'E' key for the categories on the left.
Use the 'I' key for the categories on the right. 
Each item belongs to only one category.

GO AS FAST AS YOU CAN while being accurate.

Press 'E' or 'I' when you are ready to start.",Black People,White People,Bad,Good,or,instr_4.jpg,1,text_trial_type_1,img_trial_type_1,0,3,3,3,0,0,0,0,143.45087910001166,143.45087910001166,143.45087910001166,143.45087910001166,143.45087910001166,143.45087910001166,143.45087910001166,145.45055270008743,152.4276189999655,152.4276189999655,152.4276189999655,152.4276189999655,152.4276189999655,152.4276189999655,152.7162113999948,152.7162113999948,152.7162113999948,152.7162113999948,152.7162113999948,e,1,1.1448986998293549,None,0,,,,Female,30,010,2022-10-28_10h22.26.515,IAT,2022.2.2,60.119457333486245,
"Part 4 of 7

This is the same as the previous part.

Use the 'E' key for the categories on the left.
Use the 'I' key for the categories on the right. 
Each item belongs to only one category.

GO AS FAST AS YOU CAN while being accurate.

Press 'E' or 'I' when you are ready to start.",Black People,White People,Bad,Good,or,instr_4.jpg,4,text_trial_type_4,img_trial_type_4,0,3,3,3,0,1,1,3,,,,,,,,,153.8993494999595,153.8993494999595,153.8993494999595,153.8993494999595,153.8993494999595,153.8993494999595,154.1835415000096,154.1835415000096,154.1835415000096,154.1835415000096,154.1835415000096,e,1,0.5839438999537379,None,0,,,,Female,30,010,2022-10-28_10h22.26.515,IAT,2022.2.2,60.119457333486245,
"Part 4 of 7

This is the same as the previous part.

Use the 'E' key for the categories on the left.
Use the 'I' key for the categories on the right. 
Each item belongs to only one category.

GO AS FAST AS YOU CAN while being accurate.

Press 'E' or 'I' when you are ready to start.",Black People,White People,Bad,Good,or,instr_4.jpg,1,text_trial_type_1,img_trial_type_1,0,3,3,3,0,2,2,0,,,,,,,,,154.8042844000738,154.8042844000738,154.8042844000738,154.8042844000738,154.8042844000738,154.8042844000738,155.1002120000776,155.1002120000776,155.1002120000776,155.1002120000776,155.1002120000776,e,1,0.7477766999509186,None,0,,,,Female,30,010,2022-10-28_10h22.26.515,IAT,2022.2.2,60.119457333486245,
"Part 4 of 7

This is the same as the previous part.

Use the 'E' key for the categories on the left.
Use the 'I' key for the categories on the right. 
Each item belongs to only one category.

GO AS FAST AS YOU CAN while being accurate.

Press 'E' or 'I' when you are ready to start.",Black People,White People,Bad,Good,or,instr_4.jpg,4,text_trial_type_4,img_trial_type_4,0,3,3,3,0,3,3,3,,,,,,,,,155.87646519998088,155.87646519998088,155.87646519998088,155.87646519998088,155.87646519998088,155.87646519998088,156.16665729996748,156.16665729996748,156.16665729996748,156.16665729996748,156.16665729996748,e,1,0.48658389993943274,None,0,,,,Female,30,010,2022-10-28_10h22.26.515,IAT,2022.2.2,60.119457333486245,
"Part 4 of 7

This is the same as the previous part.

Use the 'E' key for the categories on the left.
Use the 'I' key for the categories on the right. 
Each item belongs to only one category.

GO AS FAST AS YOU CAN while being accurate.

Press 'E' or 'I' when you are ready to start.",Black People,White People,Bad,Good,or,instr_4.jpg,1,text_trial_type_1,img_trial_type_1,0,3,3,3,1,0,4,0,,,,,,,,,156.6880230999086,156.6880230999086,156.6880230999086,156.6880230999086,156.6880230999086,156.6880230999086,156.98325569997542,156.98325569997542,156.98325569997542,156.98325569997542,156.98325569997542,e,1,0.5522838998585939,None,0,,,,Female,30,010,2022-10-28_10h22.26.515,IAT,2022.2.2,60.119457333486245,
"Part 4 of 7

This is the same as the previous part.

Use the 'E' key for the categories on the left.
Use the 'I' key for the categories on the right. 
Each item belongs to only one category.

GO AS FAST AS YOU CAN while being accurate.

Press 'E' or 'I' when you are ready to start.",Black People,White People,Bad,Good,or,instr_4.jpg,4,text_trial_type_4,img_trial_type_4,0,3,3,3,1,1,5,3,,,,,,,,,157.57698830007575,157.57698830007575,157.57698830007575,157.57698830007575,157.57698830007575,157.57698830007575,157.8667844000738,157.8667844000738,157.8667844000738,157.8667844000738,157.8667844000738,e,1,0.5674564000219107,None,0,,,,Female,30,010,2022-10-28_10h22.26.515,IAT,2022.2.2,60.119457333486245,
"Part 4 of 7

This is the same as the previous part.

Use the 'E' key for the categories on the left.
Use the 'I' key for the categories on the right. 
Each item belongs to only one category.

GO AS FAST AS YOU CAN while being accurate.

Press 'E' or 'I' when you are ready to start.",Black People,White People,Bad,Good,or,instr_4.jpg,1,text_trial_type_1,img_trial_type_1,0,3,3,3,1,2,6,0,,,,,,,,,158.47147729992867,158.47147729992867,158.47147729992867,158.47147729992867,158.47147729992867,158.47147729992867,158.76652229996398,158.76652229996398,158.76652229996398,158.76652229996398,158.76652229996398,e,1,0.6604118999093771,None,0,,,,Female,30,010,2022-10-28_10h22.26.515,IAT,2022.2.2,60.119457333486245,
"Part 4 of 7

This is the same as the previous part.

Use the 'E' key for the categories on the left.
Use the 'I' key for the categories on the right. 
Each item belongs to only one category.

GO AS FAST AS YOU CAN while being accurate.

Press 'E' or 'I' when you are ready to start.",Black People,White People,Bad,Good,or,instr_4.jpg,1,text_trial_type_1,img_trial_type_1,0,3,3,3,1,3,7,0,,,,,,,,,159.44972939998843,159.44972939998843,159.44972939998843,159.44972939998843,159.44972939998843,159.44972939998843,159.7507251999341,159.7507251999341,159.7507251999341,159.7507251999341,159.7507251999341,e,1,0.6643187999725342,None,0,,,,Female,30,010,2022-10-28_10h22.26.515,IAT,2022.2.2,60.119457333486245,
"Part 4 of 7

This is the same as the previous part.

Use the 'E' key for the categories on the left.
Use the 'I' key for the categories on the right. 
Each item belongs to only one category.

GO AS FAST AS YOU CAN while being accurate.

Press 'E' or 'I' when you are ready to start.",Black People,White People,Bad,Good,or,instr_4.jpg,2,text_trial_type_2,img_trial_type_2,0,3,3,3,2,0,8,1,,,,,,,,,160.43227780004963,160.43227780004963,160.43227780004963,160.43227780004963,160.43227780004963,160.43227780004963,160.73355649993755,160.73355649993755,160.73355649993755,160.73355649993755,160.73355649993755,i,1,0.6184335998259485,None,0,,,,Female,30,010,2022-10-28_10h22.26.515,IAT,2022.2.2,60.119457333486245,
"Part 4 of 7

This is the same as the previous part.

Use the 'E' key for the categories on the left.
Use the 'I' key for the categories on the right. 
Each item belongs to only one category.

GO AS FAST AS YOU CAN while being accurate.

Press 'E' or 'I' when you are ready to start.",Black People,White People,Bad,Good,or,instr_4.jpg,3,text_trial_type_3,img_trial_type_3,0,3,3,3,2,1,9,2,,,,,,,,,161.39662340003997,161.39662340003997,161.39662340003997,161.39662340003997,161.39662340003997,161.39662340003997,161.68397430004552,161.68397430004552,161.68397430004552,161.68397430004552,161.68397430004552,i,1,0.7341215999331325,None,0,,,,Female,30,010,2022-10-28_10h22.26.515,IAT,2022.2.2,60.119457333486245,
"Part 4 of 7

This is the same as the previous part.

Use the 'E' key for the categories on the left.
Use the 'I' key for the categories on the right. 
Each item belongs to only one category.

GO AS FAST AS YOU CAN while being accurate.

Press 'E' or 'I' when you are ready to start.",Black People,White People,Bad,Good,or,instr_4.jpg,2,text_trial_type_2,img_trial_type_2,0,3,3,3,2,2,10,1,,,,,,,,,162.45482490002178,162.45482490002178,162.45482490002178,162.45482490002178,162.45482490002178,162.45482490002178,162.7500386000611,162.7500386000611,162.7500386000611,162.7500386000611,162.7500386000611,i,1,0.567195599898696,None,0,,,,Female,30,010,2022-10-28_10h22.26.515,IAT,2022.2.2,60.119457333486245,
"Part 4 of 7

This is the same as the previous part.

Use the 'E' key for the categories on the left.
Use the 'I' key for the categories on the right. 
Each item belongs to only one category.

GO AS FAST AS YOU CAN while being accurate.

Press 'E' or 'I' when you are ready to start.",Black People,White People,Bad,Good,or,instr_4.jpg,3,text_trial_type_3,img_trial_type_3,0,3,3,3,2,3,11,2,,,,,,,,,163.34772030008025,163.34772030008025,163.34772030008025,163.34772030008025,163.34772030008025,163.34772030008025,163.63390780007467,163.63390780007467,163.63390780007467,163.63390780007467,163.63390780007467,i,1,0.5602869000285864,None,0,,,,Female,30,010,2022-10-28_10h22.26.515,IAT,2022.2.2,60.119457333486245,
"Part 4 of 7

This is the same as the previous part.

Use the 'E' key for the categories on the left.
Use the 'I' key for the categories on the right. 
Each item belongs to only one category.

GO AS FAST AS YOU CAN while being accurate.

Press 'E' or 'I' when you are ready to start.",Black People,White People,Bad,Good,or,instr_4.jpg,3,text_trial_type_3,img_trial_type_3,0,3,3,3,3,0,12,2,,,,,,,,,164.22892919997685,164.22892919997685,164.22892919997685,164.22892919997685,164.22892919997685,164.22892919997685,164.51681810012087,164.51681810012087,164.51681810012087,164.51681810012087,164.51681810012087,i,1,0.4438218998257071,None,0,,,,Female,30,010,2022-10-28_10h22.26.515,IAT,2022.2.2,60.119457333486245,
"Part 4 of 7

This is the same as the previous part.

Use the 'E' key for the categories on the left.
Use the 'I' key for the categories on the right. 
Each item belongs to only one category.

GO AS FAST AS YOU CAN while being accurate.

Press 'E' or 'I' when you are ready to start.",Black People,White People,Bad,Good,or,instr_4.jpg,2,text_trial_type_2,img_trial_type_2,0,3,3,3,3,1,13,1,,,,,,,,,164.9880311000161,164.9880311000161,164.9880311000161,164.9880311000161,164.9880311000161,164.9880311000161,165.28328650002368,165.28328650002368,165.28328650002368,165.28328650002368,165.28328650002368,i,1,0.5393368999939412,None,0,,,,Female,30,010,2022-10-28_10h22.26.515,IAT,2022.2.2,60.119457333486245,
"Part 4 of 7

This is the same as the previous part.

Use the 'E' key for the categories on the left.
Use the 'I' key for the categories on the right. 
Each item belongs to only one category.

GO AS FAST AS YOU CAN while being accurate.

Press 'E' or 'I' when you are ready to start.",Black People,White People,Bad,Good,or,instr_4.jpg,2,text_trial_type_2,img_trial_type_2,0,3,3,3,3,2,14,1,,,,,,,,,165.8492821000982,165.8492821000982,165.8492821000982,165.8492821000982,165.8492821000982,165.8492821000982,166.150353099918,166.150353099918,166.150353099918,166.150353099918,166.150353099918,i,1,0.42691439972259104,None,0,,,,Female,30,010,2022-10-28_10h22.26.515,IAT,2022.2.2,60.119457333486245,
"Part 4 of 7

This is the same as the previous part.

Use the 'E' key for the categories on the left.
Use the 'I' key for the categories on the right. 
Each item belongs to only one category.

GO AS FAST AS YOU CAN while being accurate.

Press 'E' or 'I' when you are ready to start.",Black People,White People,Bad,Good,or,instr_4.jpg,1,text_trial_type_1,img_trial_type_1,0,3,3,3,3,3,15,0,,,,,,,,,166.59934610011987,166.59934610011987,166.59934610011987,166.59934610011987,166.59934610011987,166.59934610011987,166.90013920003548,166.90013920003548,166.90013920003548,166.90013920003548,166.90013920003548,e,1,1.140645699808374,i,1,0.35936450003646314,,,Female,30,010,2022-10-28_10h22.26.515,IAT,2022.2.2,60.119457333486245,
"Part 4 of 7

This is the same as the previous part.

Use the 'E' key for the categories on the left.
Use the 'I' key for the categories on the right. 
Each item belongs to only one category.

GO AS FAST AS YOU CAN while being accurate.

Press 'E' or 'I' when you are ready to start.",Black People,White People,Bad,Good,or,instr_4.jpg,3,text_trial_type_3,img_trial_type_3,0,3,3,3,4,0,16,2,,,,,,,,,168.07983630010858,168.07983630010858,168.07983630010858,168.07983630010858,168.07983630010858,168.07983630010858,168.36697220010683,168.36697220010683,168.36697220010683,168.36697220010683,168.36697220010683,i,1,0.6834495000075549,None,0,,,,Female,30,010,2022-10-28_10h22.26.515,IAT,2022.2.2,60.119457333486245,
"Part 4 of 7

This is the same as the previous part.

Use the 'E' key for the categories on the left.
Use the 'I' key for the categories on the right. 
Each item belongs to only one category.

GO AS FAST AS YOU CAN while being accurate.

Press 'E' or 'I' when you are ready to start.",Black People,White People,Bad,Good,or,instr_4.jpg,3,text_trial_type_3,img_trial_type_3,0,3,3,3,4,1,17,2,,,,,,,,,169.0791688999161,169.0791688999161,169.0791688999161,169.0791688999161,169.0791688999161,169.0791688999161,169.36730589997023,169.36730589997023,169.36730589997023,169.36730589997023,169.36730589997023,i,1,0.4176841997541487,None,0,,,,Female,30,010,2022-10-28_10h22.26.515,IAT,2022.2.2,60.119457333486245,
"Part 4 of 7

This is the same as the previous part.

Use the 'E' key for the categories on the left.
Use the 'I' key for the categories on the right. 
Each item belongs to only one category.

GO AS FAST AS YOU CAN while being accurate.

Press 'E' or 'I' when you are ready to start.",Black People,White People,Bad,Good,or,instr_4.jpg,3,text_trial_type_3,img_trial_type_3,0,3,3,3,4,2,18,2,,,,,,,,,169.82252810010687,169.82252810010687,169.82252810010687,169.82252810010687,169.82252810010687,169.82252810010687,170.11745489994064,170.11745489994064,170.11745489994064,170.11745489994064,170.11745489994064,i,1,0.3817475999239832,None,0,,,,Female,30,010,2022-10-28_10h22.26.515,IAT,2022.2.2,60.119457333486245,
"Part 4 of 7

This is the same as the previous part.

Use the 'E' key for the categories on the left.
Use the 'I' key for the categories on the right. 
Each item belongs to only one category.

GO AS FAST AS YOU CAN while being accurate.

Press 'E' or 'I' when you are ready to start.",Black People,White People,Bad,Good,or,instr_4.jpg,3,text_trial_type_3,img_trial_type_3,0,3,3,3,4,3,19,2,,,,,,,,,170.52689570002258,170.52689570002258,170.52689570002258,170.52689570002258,170.52689570002258,170.52689570002258,170.81730010011233,170.81730010011233,170.81730010011233,170.81730010011233,170.81730010011233,i,1,0.45771509991027415,None,0,,,,Female,30,010,2022-10-28_10h22.26.515,IAT,2022.2.2,60.119457333486245,
"Part 4 of 7

This is the same as the previous part.

Use the 'E' key for the categories on the left.
Use the 'I' key for the categories on the right. 
Each item belongs to only one category.

GO AS FAST AS YOU CAN while being accurate.

Press 'E' or 'I' when you are ready to start.",Black People,White People,Bad,Good,or,instr_4.jpg,4,text_trial_type_4,img_trial_type_4,0,3,3,3,5,0,20,3,,,,,,,,,171.31333800009452,171.31333800009452,171.31333800009452,171.31333800009452,171.31333800009452,171.31333800009452,171.60048040002584,171.60048040002584,171.60048040002584,171.60048040002584,171.60048040002584,e,1,0.8572458997368813,i,1,0.43350999988615513,,,Female,30,010,2022-10-28_10h22.26.515,IAT,2022.2.2,60.119457333486245,
"Part 4 of 7

This is the same as the previous part.

Use the 'E' key for the categories on the left.
Use the 'I' key for the categories on the right. 
Each item belongs to only one category.

GO AS FAST AS YOU CAN while being accurate.

Press 'E' or 'I' when you are ready to start.",Black People,White People,Bad,Good,or,instr_4.jpg,2,text_trial_type_2,img_trial_type_2,0,3,3,3,5,1,21,1,,,,,,,,,172.48824129998684,172.48824129998684,172.48824129998684,172.48824129998684,172.48824129998684,172.48824129998684,172.78359450004064,172.78359450004064,172.78359450004064,172.78359450004064,172.78359450004064,i,1,0.6252981999423355,None,0,,,,Female,30,010,2022-10-28_10h22.26.515,IAT,2022.2.2,60.119457333486245,
"Part 4 of 7

This is the same as the previous part.

Use the 'E' key for the categories on the left.
Use the 'I' key for the categories on the right. 
Each item belongs to only one category.

GO AS FAST AS YOU CAN while being accurate.

Press 'E' or 'I' when you are ready to start.",Black People,White People,Bad,Good,or,instr_4.jpg,4,text_trial_type_4,img_trial_type_4,0,3,3,3,5,2,22,3,,,,,,,,,173.44484800007194,173.44484800007194,173.44484800007194,173.44484800007194,173.44484800007194,173.44484800007194,173.73421190003864,173.73421190003864,173.73421190003864,173.73421190003864,173.73421190003864,e,1,1.8148431999143213,None,0,,,,Female,30,010,2022-10-28_10h22.26.515,IAT,2022.2.2,60.119457333486245,
"Part 4 of 7

This is the same as the previous part.

Use the 'E' key for the categories on the left.
Use the 'I' key for the categories on the right. 
Each item belongs to only one category.

GO AS FAST AS YOU CAN while being accurate.

Press 'E' or 'I' when you are ready to start.",Black People,White People,Bad,Good,or,instr_4.jpg,1,text_trial_type_1,img_trial_type_1,0,3,3,3,5,3,23,0,,,,,,,,,175.57154530007392,175.57154530007392,175.57154530007392,175.57154530007392,175.57154530007392,175.57154530007392,175.86745260003954,175.86745260003954,175.86745260003954,175.86745260003954,175.86745260003954,e,1,0.8241566997021437,None,0,,,,Female,30,010,2022-10-28_10h22.26.515,IAT,2022.2.2,60.119457333486245,
"Part 4 of 7

This is the same as the previous part.

Use the 'E' key for the categories on the left.
Use the 'I' key for the categories on the right. 
Each item belongs to only one category.

GO AS FAST AS YOU CAN while being accurate.

Press 'E' or 'I' when you are ready to start.",Black People,White People,Bad,Good,or,instr_4.jpg,2,text_trial_type_2,img_trial_type_2,0,3,3,3,6,0,24,1,,,,,,,,,176.71542749996297,176.71542749996297,176.71542749996297,176.71542749996297,176.71542749996297,176.71542749996297,177.01708259992301,177.01708259992301,177.01708259992301,177.01708259992301,177.01708259992301,i,1,0.5371053998824209,None,0,,,,Female,30,010,2022-10-28_10h22.26.515,IAT,2022.2.2,60.119457333486245,
"Part 4 of 7

This is the same as the previous part.

Use the 'E' key for the categories on the left.
Use the 'I' key for the categories on the right. 
Each item belongs to only one category.

GO AS FAST AS YOU CAN while being accurate.

Press 'E' or 'I' when you are ready to start.",Black People,White People,Bad,Good,or,instr_4.jpg,3,text_trial_type_3,img_trial_type_3,0,3,3,3,6,1,25,2,,,,,,,,,177.59368570009246,177.59368570009246,177.59368570009246,177.59368570009246,177.59368570009246,177.59368570009246,177.88434490002692,177.88434490002692,177.88434490002692,177.88434490002692,177.88434490002692,i,1,0.5628271999303252,None,0,,,,Female,30,010,2022-10-28_10h22.26.515,IAT,2022.2.2,60.119457333486245,
"Part 4 of 7

This is the same as the previous part.

Use the 'E' key for the categories on the left.
Use the 'I' key for the categories on the right. 
Each item belongs to only one category.

GO AS FAST AS YOU CAN while being accurate.

Press 'E' or 'I' when you are ready to start.",Black People,White People,Bad,Good,or,instr_4.jpg,1,text_trial_type_1,img_trial_type_1,0,3,3,3,6,2,26,0,,,,,,,,,178.47170790005475,178.47170790005475,178.47170790005475,178.47170790005475,178.47170790005475,178.47170790005475,178.7671386001166,178.7671386001166,178.7671386001166,178.7671386001166,178.7671386001166,e,1,0.6322643999010324,None,0,,,,Female,30,010,2022-10-28_10h22.26.515,IAT,2022.2.2,60.119457333486245,
"Part 4 of 7

This is the same as the previous part.

Use the 'E' key for the categories on the left.
Use the 'I' key for the categories on the right. 
Each item belongs to only one category.

GO AS FAST AS YOU CAN while being accurate.

Press 'E' or 'I' when you are ready to start.",Black People,White People,Bad,Good,or,instr_4.jpg,1,text_trial_type_1,img_trial_type_1,0,3,3,3,6,3,27,0,,,,,,,,,179.41596370004117,179.41596370004117,179.41596370004117,179.41596370004117,179.41596370004117,179.41596370004117,179.7170383001212,179.7170383001212,179.7170383001212,179.7170383001212,179.7170383001212,e,1,0.878940399736166,None,0,,,,Female,30,010,2022-10-28_10h22.26.515,IAT,2022.2.2,60.119457333486245,
"Part 4 of 7

This is the same as the previous part.

Use the 'E' key for the categories on the left.
Use the 'I' key for the categories on the right. 
Each item belongs to only one category.

GO AS FAST AS YOU CAN while being accurate.

Press 'E' or 'I' when you are ready to start.",Black People,White People,Bad,Good,or,instr_4.jpg,2,text_trial_type_2,img_trial_type_2,0,3,3,3,7,0,28,1,,,,,,,,,180.61645490000956,180.61645490000956,180.61645490000956,180.61645490000956,180.61645490000956,180.61645490000956,180.91647680010647,180.91647680010647,180.91647680010647,180.91647680010647,180.91647680010647,i,1,0.4986429000273347,None,0,,,,Female,30,010,2022-10-28_10h22.26.515,IAT,2022.2.2,60.119457333486245,
"Part 4 of 7

This is the same as the previous part.

Use the 'E' key for the categories on the left.
Use the 'I' key for the categories on the right. 
Each item belongs to only one category.

GO AS FAST AS YOU CAN while being accurate.

Press 'E' or 'I' when you are ready to start.",Black People,White People,Bad,Good,or,instr_4.jpg,4,text_trial_type_4,img_trial_type_4,0,3,3,3,7,1,29,3,,,,,,,,,181.44736270001158,181.44736270001158,181.44736270001158,181.44736270001158,181.44736270001158,181.44736270001158,181.73414009995759,181.73414009995759,181.73414009995759,181.73414009995759,181.73414009995759,e,1,0.6412242997903377,None,0,,,,Female,30,010,2022-10-28_10h22.26.515,IAT,2022.2.2,60.119457333486245,
"Part 4 of 7

This is the same as the previous part.

Use the 'E' key for the categories on the left.
Use the 'I' key for the categories on the right. 
Each item belongs to only one category.

GO AS FAST AS YOU CAN while being accurate.

Press 'E' or 'I' when you are ready to start.",Black People,White People,Bad,Good,or,instr_4.jpg,4,text_trial_type_4,img_trial_type_4,0,3,3,3,7,2,30,3,,,,,,,,,182.41295629995875,182.41295629995875,182.41295629995875,182.41295629995875,182.41295629995875,182.41295629995875,182.70125019992702,182.70125019992702,182.70125019992702,182.70125019992702,182.70125019992702,e,1,0.5695265997201204,None,0,,,,Female,30,010,2022-10-28_10h22.26.515,IAT,2022.2.2,60.119457333486245,
"Part 4 of 7

This is the same as the previous part.

Use the 'E' key for the categories on the left.
Use the 'I' key for the categories on the right. 
Each item belongs to only one category.

GO AS FAST AS YOU CAN while being accurate.

Press 'E' or 'I' when you are ready to start.",Black People,White People,Bad,Good,or,instr_4.jpg,2,text_trial_type_2,img_trial_type_2,0,3,3,3,7,3,31,1,,,,,,,,,183.30478750006296,183.30478750006296,183.30478750006296,183.30478750006296,183.30478750006296,183.30478750006296,183.60068319994025,183.60068319994025,183.60068319994025,183.60068319994025,183.60068319994025,i,1,0.6306956999469548,None,0,,,,Female,30,010,2022-10-28_10h22.26.515,IAT,2022.2.2,60.119457333486245,
"Part 4 of 7

This is the same as the previous part.

Use the 'E' key for the categories on the left.
Use the 'I' key for the categories on the right. 
Each item belongs to only one category.

GO AS FAST AS YOU CAN while being accurate.

Press 'E' or 'I' when you are ready to start.",Black People,White People,Bad,Good,or,instr_4.jpg,2,text_trial_type_2,img_trial_type_2,0,3,3,3,8,0,32,1,,,,,,,,,184.24945700005628,184.24945700005628,184.24945700005628,184.24945700005628,184.24945700005628,184.24945700005628,184.55119260004722,184.55119260004722,184.55119260004722,184.55119260004722,184.55119260004722,i,1,0.6761783997062594,None,0,,,,Female,30,010,2022-10-28_10h22.26.515,IAT,2022.2.2,60.119457333486245,
"Part 4 of 7

This is the same as the previous part.

Use the 'E' key for the categories on the left.
Use the 'I' key for the categories on the right. 
Each item belongs to only one category.

GO AS FAST AS YOU CAN while being accurate.

Press 'E' or 'I' when you are ready to start.",Black People,White People,Bad,Good,or,instr_4.jpg,3,text_trial_type_3,img_trial_type_3,0,3,3,3,8,1,33,2,,,,,,,,,185.26036219997332,185.26036219997332,185.26036219997332,185.26036219997332,185.26036219997332,185.26036219997332,185.55105179990642,185.55105179990642,185.55105179990642,185.55105179990642,185.55105179990642,i,1,0.7632717997767031,None,0,,,,Female,30,010,2022-10-28_10h22.26.515,IAT,2022.2.2,60.119457333486245,
"Part 4 of 7

This is the same as the previous part.

Use the 'E' key for the categories on the left.
Use the 'I' key for the categories on the right. 
Each item belongs to only one category.

GO AS FAST AS YOU CAN while being accurate.

Press 'E' or 'I' when you are ready to start.",Black People,White People,Bad,Good,or,instr_4.jpg,2,text_trial_type_2,img_trial_type_2,0,3,3,3,8,2,34,1,,,,,,,,,186.33831269992515,186.33831269992515,186.33831269992515,186.33831269992515,186.33831269992515,186.33831269992515,186.63411059998907,186.63411059998907,186.63411059998907,186.63411059998907,186.63411059998907,i,1,0.7098420998081565,None,0,,,,Female,30,010,2022-10-28_10h22.26.515,IAT,2022.2.2,60.119457333486245,
"Part 4 of 7

This is the same as the previous part.

Use the 'E' key for the categories on the left.
Use the 'I' key for the categories on the right. 
Each item belongs to only one category.

GO AS FAST AS YOU CAN while being accurate.

Press 'E' or 'I' when you are ready to start.",Black People,White People,Bad,Good,or,instr_4.jpg,4,text_trial_type_4,img_trial_type_4,0,3,3,3,8,3,35,3,,,,,,,,,187.37760840007104,187.37760840007104,187.37760840007104,187.37760840007104,187.37760840007104,187.37760840007104,187.66717669996433,187.66717669996433,187.66717669996433,187.66717669996433,187.66717669996433,e,1,0.6531559000723064,None,0,,,,Female,30,010,2022-10-28_10h22.26.515,IAT,2022.2.2,60.119457333486245,
"Part 4 of 7

This is the same as the previous part.

Use the 'E' key for the categories on the left.
Use the 'I' key for the categories on the right. 
Each item belongs to only one category.

GO AS FAST AS YOU CAN while being accurate.

Press 'E' or 'I' when you are ready to start.",Black People,White People,Bad,Good,or,instr_4.jpg,4,text_trial_type_4,img_trial_type_4,0,3,3,3,9,0,36,3,,,,,,,,,188.3593186000362,188.3593186000362,188.3593186000362,188.3593186000362,188.3593186000362,188.3593186000362,188.65134189999662,188.65134189999662,188.65134189999662,188.65134189999662,188.65134189999662,e,1,0.5689906999468803,None,0,,,,Female,30,010,2022-10-28_10h22.26.515,IAT,2022.2.2,60.119457333486245,
"Part 4 of 7

This is the same as the previous part.

Use the 'E' key for the categories on the left.
Use the 'I' key for the categories on the right. 
Each item belongs to only one category.

GO AS FAST AS YOU CAN while being accurate.

Press 'E' or 'I' when you are ready to start.",Black People,White People,Bad,Good,or,instr_4.jpg,1,text_trial_type_1,img_trial_type_1,0,3,3,3,9,1,37,0,,,,,,,,,189.25588879990391,189.25588879990391,189.25588879990391,189.25588879990391,189.25588879990391,189.25588879990391,189.5507883001119,189.5507883001119,189.5507883001119,189.5507883001119,189.5507883001119,e,1,1.3321898998692632,None,0,,,,Female,30,010,2022-10-28_10h22.26.515,IAT,2022.2.2,60.119457333486245,
"Part 4 of 7

This is the same as the previous part.

Use the 'E' key for the categories on the left.
Use the 'I' key for the categories on the right. 
Each item belongs to only one category.

GO AS FAST AS YOU CAN while being accurate.

Press 'E' or 'I' when you are ready to start.",Black People,White People,Bad,Good,or,instr_4.jpg,3,text_trial_type_3,img_trial_type_3,0,3,3,3,9,2,38,2,,,,,,,,,190.91178869991563,190.91178869991563,190.91178869991563,190.91178869991563,190.91178869991563,190.91178869991563,191.2011345999781,191.2011345999781,191.2011345999781,191.2011345999781,191.2011345999781,i,1,0.7234235000796616,None,0,,,,Female,30,010,2022-10-28_10h22.26.515,IAT,2022.2.2,60.119457333486245,
"Part 4 of 7

This is the same as the previous part.

Use the 'E' key for the categories on the left.
Use the 'I' key for the categories on the right. 
Each item belongs to only one category.

GO AS FAST AS YOU CAN while being accurate.

Press 'E' or 'I' when you are ready to start.",Black People,White People,Bad,Good,or,instr_4.jpg,4,text_trial_type_4,img_trial_type_4,0,3,3,3,9,3,39,3,,,,,,,,,191.9636429999955,191.9636429999955,191.9636429999955,191.9636429999955,191.9636429999955,191.9636429999955,192.25146969989873,192.25146969989873,192.25146969989873,192.25146969989873,192.25146969989873,e,1,0.6319000998046249,None,0,,,,Female,30,010,2022-10-28_10h22.26.515,IAT,2022.2.2,60.119457333486245,
"Part 5 of 7

WATCH OUT, THE LABELS HAVE CHANGED POSITION!
Use the left finger on the 'E' for the category on the left.
Use the right finger on the 'I' key for the category on the right.

GO AS FAST AS YOU CAN while being accurate.

Press 'E' or 'I' when you are ready to start.",Black People,White People, , , ,instr_5.jpg,2,text_trial_type_2,img_trial_type_2,0,4,4,4,0,0,0,1,193.65253089996986,193.65253089996986,193.65253089996986,193.65253089996986,193.65253089996986,193.65253089996986,193.65253089996986,195.65165150002576,201.97432580008171,201.97432580008171,201.97432580008171,201.97432580008171,201.97432580008171,201.97432580008171,202.25135789997876,202.25135789997876,202.25135789997876,202.25135789997876,202.25135789997876,e,1,0.7637613997794688,None,0,,,,Female,30,010,2022-10-28_10h22.26.515,IAT,2022.2.2,60.119457333486245,
"Part 5 of 7

WATCH OUT, THE LABELS HAVE CHANGED POSITION!
Use the left finger on the 'E' for the category on the left.
Use the right finger on the 'I' key for the category on the right.

GO AS FAST AS YOU CAN while being accurate.

Press 'E' or 'I' when you are ready to start.",Black People,White People, , , ,instr_5.jpg,2,text_trial_type_2,img_trial_type_2,0,4,4,4,0,1,1,1,,,,,,,,,203.03265410009772,203.03265410009772,203.03265410009772,203.03265410009772,203.03265410009772,203.03265410009772,203.33456639992073,203.33456639992073,203.33456639992073,203.33456639992073,203.33456639992073,e,1,0.6344435000792146,None,0,,,,Female,30,010,2022-10-28_10h22.26.515,IAT,2022.2.2,60.119457333486245,
"Part 5 of 7

WATCH OUT, THE LABELS HAVE CHANGED POSITION!
Use the left finger on the 'E' for the category on the left.
Use the right finger on the 'I' key for the category on the right.

GO AS FAST AS YOU CAN while being accurate.

Press 'E' or 'I' when you are ready to start.",Black People,White People, , , ,instr_5.jpg,2,text_trial_type_2,img_trial_type_2,0,4,4,4,1,0,2,1,,,,,,,,,204.0001356001012,204.0001356001012,204.0001356001012,204.0001356001012,204.0001356001012,204.0001356001012,204.30112390010618,204.30112390010618,204.30112390010618,204.30112390010618,204.30112390010618,e,1,0.5974371000193059,None,0,,,,Female,30,010,2022-10-28_10h22.26.515,IAT,2022.2.2,60.119457333486245,
"Part 5 of 7

WATCH OUT, THE LABELS HAVE CHANGED POSITION!
Use the left finger on the 'E' for the category on the left.
Use the right finger on the 'I' key for the category on the right.

GO AS FAST AS YOU CAN while being accurate.

Press 'E' or 'I' when you are ready to start.",Black People,White People, , , ,instr_5.jpg,1,text_trial_type_1,img_trial_type_1,0,4,4,4,1,1,3,0,,,,,,,,,204.91668300004676,204.91668300004676,204.91668300004676,204.91668300004676,204.91668300004676,204.91668300004676,205.21766770002432,205.21766770002432,205.21766770002432,205.21766770002432,205.21766770002432,i,1,0.6921878000721335,None,0,,,,Female,30,010,2022-10-28_10h22.26.515,IAT,2022.2.2,60.119457333486245,
"Part 5 of 7

WATCH OUT, THE LABELS HAVE CHANGED POSITION!
Use the left finger on the 'E' for the category on the left.
Use the right finger on the 'I' key for the category on the right.

GO AS FAST AS YOU CAN while being accurate.

Press 'E' or 'I' when you are ready to start.",Black People,White People, , , ,instr_5.jpg,2,text_trial_type_2,img_trial_type_2,0,4,4,4,2,0,4,1,,,,,,,,,205.93304620007984,205.93304620007984,205.93304620007984,205.93304620007984,205.93304620007984,205.93304620007984,206.23457209998742,206.23457209998742,206.23457209998742,206.23457209998742,206.23457209998742,e,1,0.6564615999814123,None,0,,,,Female,30,010,2022-10-28_10h22.26.515,IAT,2022.2.2,60.119457333486245,
"Part 5 of 7

WATCH OUT, THE LABELS HAVE CHANGED POSITION!
Use the left finger on the 'E' for the category on the left.
Use the right finger on the 'I' key for the category on the right.

GO AS FAST AS YOU CAN while being accurate.

Press 'E' or 'I' when you are ready to start.",Black People,White People, , , ,instr_5.jpg,1,text_trial_type_1,img_trial_type_1,0,4,4,4,2,1,5,0,,,,,,,,,206.9165129000321,206.9165129000321,206.9165129000321,206.9165129000321,206.9165129000321,206.9165129000321,207.21747689996846,207.21747689996846,207.21747689996846,207.21747689996846,207.21747689996846,i,1,0.7245171999093145,None,0,,,,Female,30,010,2022-10-28_10h22.26.515,IAT,2022.2.2,60.119457333486245,
"Part 5 of 7

WATCH OUT, THE LABELS HAVE CHANGED POSITION!
Use the left finger on the 'E' for the category on the left.
Use the right finger on the 'I' key for the category on the right.

GO AS FAST AS YOU CAN while being accurate.

Press 'E' or 'I' when you are ready to start.",Black People,White People, , , ,instr_5.jpg,2,text_trial_type_2,img_trial_type_2,0,4,4,4,3,0,6,1,,,,,,,,,207.96705420012586,207.96705420012586,207.96705420012586,207.96705420012586,207.96705420012586,207.96705420012586,208.2672727999743,208.2672727999743,208.2672727999743,208.2672727999743,208.2672727999743,e,1,0.5517352998722345,None,0,,,,Female,30,010,2022-10-28_10h22.26.515,IAT,2022.2.2,60.119457333486245,
"Part 5 of 7

WATCH OUT, THE LABELS HAVE CHANGED POSITION!
Use the left finger on the 'E' for the category on the left.
Use the right finger on the 'I' key for the category on the right.

GO AS FAST AS YOU CAN while being accurate.

Press 'E' or 'I' when you are ready to start.",Black People,White People, , , ,instr_5.jpg,2,text_trial_type_2,img_trial_type_2,0,4,4,4,3,1,7,1,,,,,,,,,208.8506052000448,208.8506052000448,208.8506052000448,208.8506052000448,208.8506052000448,208.8506052000448,209.15141419996507,209.15141419996507,209.15141419996507,209.15141419996507,209.15141419996507,e,1,0.9774090999271721,None,0,,,,Female,30,010,2022-10-28_10h22.26.515,IAT,2022.2.2,60.119457333486245,
"Part 5 of 7

WATCH OUT, THE LABELS HAVE CHANGED POSITION!
Use the left finger on the 'E' for the category on the left.
Use the right finger on the 'I' key for the category on the right.

GO AS FAST AS YOU CAN while being accurate.

Press 'E' or 'I' when you are ready to start.",Black People,White People, , , ,instr_5.jpg,1,text_trial_type_1,img_trial_type_1,0,4,4,4,4,0,8,0,,,,,,,,,210.1531384999398,210.1531384999398,210.1531384999398,210.1531384999398,210.1531384999398,210.1531384999398,210.4514285000041,210.4514285000041,210.4514285000041,210.4514285000041,210.4514285000041,i,1,0.6166779997292906,None,0,,,,Female,30,010,2022-10-28_10h22.26.515,IAT,2022.2.2,60.119457333486245,
"Part 5 of 7

WATCH OUT, THE LABELS HAVE CHANGED POSITION!
Use the left finger on the 'E' for the category on the left.
Use the right finger on the 'I' key for the category on the right.

GO AS FAST AS YOU CAN while being accurate.

Press 'E' or 'I' when you are ready to start.",Black People,White People, , , ,instr_5.jpg,1,text_trial_type_1,img_trial_type_1,0,4,4,4,4,1,9,0,,,,,,,,,211.1003173000645,211.1003173000645,211.1003173000645,211.1003173000645,211.1003173000645,211.1003173000645,211.40188869996928,211.40188869996928,211.40188869996928,211.40188869996928,211.40188869996928,i,1,0.4176362999714911,None,0,,,,Female,30,010,2022-10-28_10h22.26.515,IAT,2022.2.2,60.119457333486245,
"Part 5 of 7

WATCH OUT, THE LABELS HAVE CHANGED POSITION!
Use the left finger on the 'E' for the category on the left.
Use the right finger on the 'I' key for the category on the right.

GO AS FAST AS YOU CAN while being accurate.

Press 'E' or 'I' when you are ready to start.",Black People,White People, , , ,instr_5.jpg,1,text_trial_type_1,img_trial_type_1,0,4,4,4,5,0,10,0,,,,,,,,,211.85012730001472,211.85012730001472,211.85012730001472,211.85012730001472,211.85012730001472,211.85012730001472,212.1515756000299,212.1515756000299,212.1515756000299,212.1515756000299,212.1515756000299,i,1,0.5317118000239134,None,0,,,,Female,30,010,2022-10-28_10h22.26.515,IAT,2022.2.2,60.119457333486245,
"Part 5 of 7

WATCH OUT, THE LABELS HAVE CHANGED POSITION!
Use the left finger on the 'E' for the category on the left.
Use the right finger on the 'I' key for the category on the right.

GO AS FAST AS YOU CAN while being accurate.

Press 'E' or 'I' when you are ready to start.",Black People,White People, , , ,instr_5.jpg,2,text_trial_type_2,img_trial_type_2,0,4,4,4,5,1,11,1,,,,,,,,,212.70013640006073,212.70013640006073,212.70013640006073,212.70013640006073,212.70013640006073,212.70013640006073,213.00121590006165,213.00121590006165,213.00121590006165,213.00121590006165,213.00121590006165,e,1,0.47792800003662705,None,0,,,,Female,30,010,2022-10-28_10h22.26.515,IAT,2022.2.2,60.119457333486245,
"Part 5 of 7

WATCH OUT, THE LABELS HAVE CHANGED POSITION!
Use the left finger on the 'E' for the category on the left.
Use the right finger on the 'I' key for the category on the right.

GO AS FAST AS YOU CAN while being accurate.

Press 'E' or 'I' when you are ready to start.",Black People,White People, , , ,instr_5.jpg,1,text_trial_type_1,img_trial_type_1,0,4,4,4,6,0,12,0,,,,,,,,,213.50047169998288,213.50047169998288,213.50047169998288,213.50047169998288,213.50047169998288,213.50047169998288,213.80153109994717,213.80153109994717,213.80153109994717,213.80153109994717,213.80153109994717,i,1,0.6639817997347564,None,0,,,,Female,30,010,2022-10-28_10h22.26.515,IAT,2022.2.2,60.119457333486245,
"Part 5 of 7

WATCH OUT, THE LABELS HAVE CHANGED POSITION!
Use the left finger on the 'E' for the category on the left.
Use the right finger on the 'I' key for the category on the right.

GO AS FAST AS YOU CAN while being accurate.

Press 'E' or 'I' when you are ready to start.",Black People,White People, , , ,instr_5.jpg,2,text_trial_type_2,img_trial_type_2,0,4,4,4,6,1,13,1,,,,,,,,,214.4835256000515,214.4835256000515,214.4835256000515,214.4835256000515,214.4835256000515,214.4835256000515,214.78529560007155,214.78529560007155,214.78529560007155,214.78529560007155,214.78529560007155,e,1,0.46069730003364384,None,0,,,,Female,30,010,2022-10-28_10h22.26.515,IAT,2022.2.2,60.119457333486245,
"Part 5 of 7

WATCH OUT, THE LABELS HAVE CHANGED POSITION!
Use the left finger on the 'E' for the category on the left.
Use the right finger on the 'I' key for the category on the right.

GO AS FAST AS YOU CAN while being accurate.

Press 'E' or 'I' when you are ready to start.",Black People,White People, , , ,instr_5.jpg,1,text_trial_type_1,img_trial_type_1,0,4,4,4,7,0,14,0,,,,,,,,,215.26670329994522,215.26670329994522,215.26670329994522,215.26670329994522,215.26670329994522,215.26670329994522,215.5676766000688,215.5676766000688,215.5676766000688,215.5676766000688,215.5676766000688,i,1,0.5036204000934958,None,0,,,,Female,30,010,2022-10-28_10h22.26.515,IAT,2022.2.2,60.119457333486245,
"Part 5 of 7

WATCH OUT, THE LABELS HAVE CHANGED POSITION!
Use the left finger on the 'E' for the category on the left.
Use the right finger on the 'I' key for the category on the right.

GO AS FAST AS YOU CAN while being accurate.

Press 'E' or 'I' when you are ready to start.",Black People,White People, , , ,instr_5.jpg,2,text_trial_type_2,img_trial_type_2,0,4,4,4,7,1,15,1,,,,,,,,,216.10031559993513,216.10031559993513,216.10031559993513,216.10031559993513,216.10031559993513,216.10031559993513,216.40096380002797,216.40096380002797,216.40096380002797,216.40096380002797,216.40096380002797,e,1,0.47215359983965755,None,0,,,,Female,30,010,2022-10-28_10h22.26.515,IAT,2022.2.2,60.119457333486245,
"Part 5 of 7

WATCH OUT, THE LABELS HAVE CHANGED POSITION!
Use the left finger on the 'E' for the category on the left.
Use the right finger on the 'I' key for the category on the right.

GO AS FAST AS YOU CAN while being accurate.

Press 'E' or 'I' when you are ready to start.",Black People,White People, , , ,instr_5.jpg,2,text_trial_type_2,img_trial_type_2,0,4,4,4,8,0,16,1,,,,,,,,,216.90019880002365,216.90019880002365,216.90019880002365,216.90019880002365,216.90019880002365,216.90019880002365,217.20151509996504,217.20151509996504,217.20151509996504,217.20151509996504,217.20151509996504,e,1,0.495650100056082,None,0,,,,Female,30,010,2022-10-28_10h22.26.515,IAT,2022.2.2,60.119457333486245,
"Part 5 of 7

WATCH OUT, THE LABELS HAVE CHANGED POSITION!
Use the left finger on the 'E' for the category on the left.
Use the right finger on the 'I' key for the category on the right.

GO AS FAST AS YOU CAN while being accurate.

Press 'E' or 'I' when you are ready to start.",Black People,White People, , , ,instr_5.jpg,2,text_trial_type_2,img_trial_type_2,0,4,4,4,8,1,17,1,,,,,,,,,217.7165230999235,217.7165230999235,217.7165230999235,217.7165230999235,217.7165230999235,217.7165230999235,218.0174948000349,218.0174948000349,218.0174948000349,218.0174948000349,218.0174948000349,e,1,0.6011127999518067,None,0,,,,Female,30,010,2022-10-28_10h22.26.515,IAT,2022.2.2,60.119457333486245,
"Part 5 of 7

WATCH OUT, THE LABELS HAVE CHANGED POSITION!
Use the left finger on the 'E' for the category on the left.
Use the right finger on the 'I' key for the category on the right.

GO AS FAST AS YOU CAN while being accurate.

Press 'E' or 'I' when you are ready to start.",Black People,White People, , , ,instr_5.jpg,1,text_trial_type_1,img_trial_type_1,0,4,4,4,9,0,18,0,,,,,,,,,218.6503196998965,218.6503196998965,218.6503196998965,218.6503196998965,218.6503196998965,218.6503196998965,218.95142020005733,218.95142020005733,218.95142020005733,218.95142020005733,218.95142020005733,i,1,0.9814075999893248,None,0,,,,Female,30,010,2022-10-28_10h22.26.515,IAT,2022.2.2,60.119457333486245,
"Part 5 of 7

WATCH OUT, THE LABELS HAVE CHANGED POSITION!
Use the left finger on the 'E' for the category on the left.
Use the right finger on the 'I' key for the category on the right.

GO AS FAST AS YOU CAN while being accurate.

Press 'E' or 'I' when you are ready to start.",Black People,White People, , , ,instr_5.jpg,1,text_trial_type_1,img_trial_type_1,0,4,4,4,9,1,19,0,,,,,,,,,219.95091770007275,219.95091770007275,219.95091770007275,219.95091770007275,219.95091770007275,219.95091770007275,220.2519578000065,220.2519578000065,220.2519578000065,220.2519578000065,220.2519578000065,i,1,0.5607831997331232,None,0,,,,Female,30,010,2022-10-28_10h22.26.515,IAT,2022.2.2,60.119457333486245,
"Part 5 of 7

WATCH OUT, THE LABELS HAVE CHANGED POSITION!
Use the left finger on the 'E' for the category on the left.
Use the right finger on the 'I' key for the category on the right.

GO AS FAST AS YOU CAN while being accurate.

Press 'E' or 'I' when you are ready to start.",Black People,White People, , , ,instr_5.jpg,2,text_trial_type_2,img_trial_type_2,0,4,4,4,10,0,20,1,,,,,,,,,220.83329529990442,220.83329529990442,220.83329529990442,220.83329529990442,220.83329529990442,220.83329529990442,221.1346420000773,221.1346420000773,221.1346420000773,221.1346420000773,221.1346420000773,e,1,0.4936651000753045,None,0,,,,Female,30,010,2022-10-28_10h22.26.515,IAT,2022.2.2,60.119457333486245,
"Part 5 of 7

WATCH OUT, THE LABELS HAVE CHANGED POSITION!
Use the left finger on the 'E' for the category on the left.
Use the right finger on the 'I' key for the category on the right.

GO AS FAST AS YOU CAN while being accurate.

Press 'E' or 'I' when you are ready to start.",Black People,White People, , , ,instr_5.jpg,1,text_trial_type_1,img_trial_type_1,0,4,4,4,10,1,21,0,,,,,,,,,221.65059829992242,221.65059829992242,221.65059829992242,221.65059829992242,221.65059829992242,221.65059829992242,221.95134039991535,221.95134039991535,221.95134039991535,221.95134039991535,221.95134039991535,i,1,0.6466250999365002,None,0,,,,Female,30,010,2022-10-28_10h22.26.515,IAT,2022.2.2,60.119457333486245,
"Part 5 of 7

WATCH OUT, THE LABELS HAVE CHANGED POSITION!
Use the left finger on the 'E' for the category on the left.
Use the right finger on the 'I' key for the category on the right.

GO AS FAST AS YOU CAN while being accurate.

Press 'E' or 'I' when you are ready to start.",Black People,White People, , , ,instr_5.jpg,1,text_trial_type_1,img_trial_type_1,0,4,4,4,11,0,22,0,,,,,,,,,222.6173227999825,222.6173227999825,222.6173227999825,222.6173227999825,222.6173227999825,222.6173227999825,222.918132300023,222.918132300023,222.918132300023,222.918132300023,222.918132300023,i,1,0.5220280000939965,None,0,,,,Female,30,010,2022-10-28_10h22.26.515,IAT,2022.2.2,60.119457333486245,
"Part 5 of 7

WATCH OUT, THE LABELS HAVE CHANGED POSITION!
Use the left finger on the 'E' for the category on the left.
Use the right finger on the 'I' key for the category on the right.

GO AS FAST AS YOU CAN while being accurate.

Press 'E' or 'I' when you are ready to start.",Black People,White People, , , ,instr_5.jpg,1,text_trial_type_1,img_trial_type_1,0,4,4,4,11,1,23,0,,,,,,,,,223.46711899992079,223.46711899992079,223.46711899992079,223.46711899992079,223.46711899992079,223.46711899992079,223.7677136999555,223.7677136999555,223.7677136999555,223.7677136999555,223.7677136999555,i,1,0.5671947998926044,None,0,,,,Female,30,010,2022-10-28_10h22.26.515,IAT,2022.2.2,60.119457333486245,
"Part 5 of 7

WATCH OUT, THE LABELS HAVE CHANGED POSITION!
Use the left finger on the 'E' for the category on the left.
Use the right finger on the 'I' key for the category on the right.

GO AS FAST AS YOU CAN while being accurate.

Press 'E' or 'I' when you are ready to start.",Black People,White People, , , ,instr_5.jpg,1,text_trial_type_1,img_trial_type_1,0,4,4,4,12,0,24,0,,,,,,,,,224.36694710003212,224.36694710003212,224.36694710003212,224.36694710003212,224.36694710003212,224.36694710003212,224.66793180000968,224.66793180000968,224.66793180000968,224.66793180000968,224.66793180000968,i,1,0.41865909984335303,None,0,,,,Female,30,010,2022-10-28_10h22.26.515,IAT,2022.2.2,60.119457333486245,
"Part 5 of 7

WATCH OUT, THE LABELS HAVE CHANGED POSITION!
Use the left finger on the 'E' for the category on the left.
Use the right finger on the 'I' key for the category on the right.

GO AS FAST AS YOU CAN while being accurate.

Press 'E' or 'I' when you are ready to start.",Black People,White People, , , ,instr_5.jpg,2,text_trial_type_2,img_trial_type_2,0,4,4,4,12,1,25,1,,,,,,,,,225.11649690009654,225.11649690009654,225.11649690009654,225.11649690009654,225.11649690009654,225.11649690009654,225.4179523999337,225.4179523999337,225.4179523999337,225.4179523999337,225.4179523999337,e,1,0.5509851998649538,None,0,,,,Female,30,010,2022-10-28_10h22.26.515,IAT,2022.2.2,60.119457333486245,
"Part 5 of 7

WATCH OUT, THE LABELS HAVE CHANGED POSITION!
Use the left finger on the 'E' for the category on the left.
Use the right finger on the 'I' key for the category on the right.

GO AS FAST AS YOU CAN while being accurate.

Press 'E' or 'I' when you are ready to start.",Black People,White People, , , ,instr_5.jpg,2,text_trial_type_2,img_trial_type_2,0,4,4,4,13,0,26,1,,,,,,,,,226.0007825999055,226.0007825999055,226.0007825999055,226.0007825999055,226.0007825999055,226.0007825999055,226.30164270009845,226.30164270009845,226.30164270009845,226.30164270009845,226.30164270009845,e,1,0.7098977998830378,None,0,,,,Female,30,010,2022-10-28_10h22.26.515,IAT,2022.2.2,60.119457333486245,
"Part 5 of 7

WATCH OUT, THE LABELS HAVE CHANGED POSITION!
Use the left finger on the 'E' for the category on the left.
Use the right finger on the 'I' key for the category on the right.

GO AS FAST AS YOU CAN while being accurate.

Press 'E' or 'I' when you are ready to start.",Black People,White People, , , ,instr_5.jpg,1,text_trial_type_1,img_trial_type_1,0,4,4,4,13,1,27,0,,,,,,,,,227.03412410011515,227.03412410011515,227.03412410011515,227.03412410011515,227.03412410011515,227.03412410011515,227.3348101999145,227.3348101999145,227.3348101999145,227.3348101999145,227.3348101999145,i,1,0.5437333998270333,None,0,,,,Female,30,010,2022-10-28_10h22.26.515,IAT,2022.2.2,60.119457333486245,
"Part 5 of 7

WATCH OUT, THE LABELS HAVE CHANGED POSITION!
Use the left finger on the 'E' for the category on the left.
Use the right finger on the 'I' key for the category on the right.

GO AS FAST AS YOU CAN while being accurate.

Press 'E' or 'I' when you are ready to start.",Black People,White People, , , ,instr_5.jpg,1,text_trial_type_1,img_trial_type_1,0,4,4,4,14,0,28,0,,,,,,,,,227.9007685999386,227.9007685999386,227.9007685999386,227.9007685999386,227.9007685999386,227.9007685999386,228.2019543000497,228.2019543000497,228.2019543000497,228.2019543000497,228.2019543000497,i,1,0.7405787997413427,None,0,,,,Female,30,010,2022-10-28_10h22.26.515,IAT,2022.2.2,60.119457333486245,
"Part 5 of 7

WATCH OUT, THE LABELS HAVE CHANGED POSITION!
Use the left finger on the 'E' for the category on the left.
Use the right finger on the 'I' key for the category on the right.

GO AS FAST AS YOU CAN while being accurate.

Press 'E' or 'I' when you are ready to start.",Black People,White People, , , ,instr_5.jpg,1,text_trial_type_1,img_trial_type_1,0,4,4,4,14,1,29,0,,,,,,,,,228.96762140002102,228.96762140002102,228.96762140002102,228.96762140002102,228.96762140002102,228.96762140002102,229.26789260003716,229.26789260003716,229.26789260003716,229.26789260003716,229.26789260003716,i,1,0.7680053999647498,None,0,,,,Female,30,010,2022-10-28_10h22.26.515,IAT,2022.2.2,60.119457333486245,
"Part 5 of 7

WATCH OUT, THE LABELS HAVE CHANGED POSITION!
Use the left finger on the 'E' for the category on the left.
Use the right finger on the 'I' key for the category on the right.

GO AS FAST AS YOU CAN while being accurate.

Press 'E' or 'I' when you are ready to start.",Black People,White People, , , ,instr_5.jpg,2,text_trial_type_2,img_trial_type_2,0,4,4,4,15,0,30,1,,,,,,,,,230.06739849993028,230.06739849993028,230.06739849993028,230.06739849993028,230.06739849993028,230.06739849993028,230.36825830000453,230.36825830000453,230.36825830000453,230.36825830000453,230.36825830000453,e,1,0.6301819998770952,None,0,,,,Female,30,010,2022-10-28_10h22.26.515,IAT,2022.2.2,60.119457333486245,
"Part 5 of 7

WATCH OUT, THE LABELS HAVE CHANGED POSITION!
Use the left finger on the 'E' for the category on the left.
Use the right finger on the 'I' key for the category on the right.

GO AS FAST AS YOU CAN while being accurate.

Press 'E' or 'I' when you are ready to start.",Black People,White People, , , ,instr_5.jpg,1,text_trial_type_1,img_trial_type_1,0,4,4,4,15,1,31,0,,,,,,,,,231.01666840002872,231.01666840002872,231.01666840002872,231.01666840002872,231.01666840002872,231.01666840002872,231.31849099998362,231.31849099998362,231.31849099998362,231.31849099998362,231.31849099998362,i,1,0.6525284999515861,None,0,,,,Female,30,010,2022-10-28_10h22.26.515,IAT,2022.2.2,60.119457333486245,
"Part 5 of 7

WATCH OUT, THE LABELS HAVE CHANGED POSITION!
Use the left finger on the 'E' for the category on the left.
Use the right finger on the 'I' key for the category on the right.

GO AS FAST AS YOU CAN while being accurate.

Press 'E' or 'I' when you are ready to start.",Black People,White People, , , ,instr_5.jpg,2,text_trial_type_2,img_trial_type_2,0,4,4,4,16,0,32,1,,,,,,,,,232.00052640005015,232.00052640005015,232.00052640005015,232.00052640005015,232.00052640005015,232.00052640005015,232.3019507001154,232.3019507001154,232.3019507001154,232.3019507001154,232.3019507001154,e,1,0.7473147998098284,None,0,,,,Female,30,010,2022-10-28_10h22.26.515,IAT,2022.2.2,60.119457333486245,
"Part 5 of 7

WATCH OUT, THE LABELS HAVE CHANGED POSITION!
Use the left finger on the 'E' for the category on the left.
Use the right finger on the 'I' key for the category on the right.

GO AS FAST AS YOU CAN while being accurate.

Press 'E' or 'I' when you are ready to start.",Black People,White People, , , ,instr_5.jpg,2,text_trial_type_2,img_trial_type_2,0,4,4,4,16,1,33,1,,,,,,,,,233.06715669995174,233.06715669995174,233.06715669995174,233.06715669995174,233.06715669995174,233.06715669995174,233.3681264000479,233.3681264000479,233.3681264000479,233.3681264000479,233.3681264000479,e,1,1.3334653000347316,i,1,0.47672849986702204,,,Female,30,010,2022-10-28_10h22.26.515,IAT,2022.2.2,60.119457333486245,
"Part 5 of 7

WATCH OUT, THE LABELS HAVE CHANGED POSITION!
Use the left finger on the 'E' for the category on the left.
Use the right finger on the 'I' key for the category on the right.

GO AS FAST AS YOU CAN while being accurate.

Press 'E' or 'I' when you are ready to start.",Black People,White People, , , ,instr_5.jpg,1,text_trial_type_1,img_trial_type_1,0,4,4,4,17,0,34,0,,,,,,,,,234.71715899999253,234.71715899999253,234.71715899999253,234.71715899999253,234.71715899999253,234.71715899999253,235.0181239999365,235.0181239999365,235.0181239999365,235.0181239999365,235.0181239999365,i,1,0.7796266998630017,None,0,,,,Female,30,010,2022-10-28_10h22.26.515,IAT,2022.2.2,60.119457333486245,
"Part 5 of 7

WATCH OUT, THE LABELS HAVE CHANGED POSITION!
